Wavelength (nm)	EQE (%)	Current (A)	Dark Current (A) -> 	-15.505248000E-9	
400.000000	14.548305	-3.077118E-7
403.000000	11.898595	-5.719735E-7
406.000000	14.954841	-1.168282E-6
409.000000	15.277656	-1.680158E-6
412.000000	15.345614	-2.585096E-6
415.000000	14.827261	-1.192794E-6
418.000000	16.137813	-1.125743E-6
421.000000	15.270211	-1.252432E-6
424.000000	15.088913	-1.118897E-6
427.000000	14.611621	-1.415906E-6
430.000000	14.339945	-2.216819E-6
433.000000	13.851762	-2.006723E-6
436.000000	13.704239	-1.968222E-6
439.000000	13.472888	-2.122804E-6
442.000000	13.526454	-2.238015E-6
445.000000	13.480938	-2.534245E-6
448.000000	13.312740	-2.841169E-6
451.000000	13.360594	-2.512476E-6
454.000000	14.230923	-2.463557E-6
457.000000	14.282527	-2.760388E-6
460.000000	15.101761	-2.146172E-6
463.000000	14.882009	-3.636435E-6
466.000000	15.876961	-3.055565E-6
469.000000	16.052775	-2.842943E-6
472.000000	16.364463	-2.681537E-6
475.000000	16.334883	-2.538731E-6
478.000000	16.630562	-3.317880E-6
481.000000	17.880196	-2.970368E-6
484.000000	17.782229	-2.848851E-6
487.000000	17.749861	-3.927487E-6
490.000000	18.332454	-3.338577E-6
493.000000	18.226864	-3.374923E-6
496.000000	18.340504	-4.085804E-6
499.000000	18.936758	-4.204406E-6
502.000000	19.354778	-3.903789E-6
505.000000	19.607348	-4.815995E-6
508.000000	19.647307	-6.228234E-6
511.000000	19.258202	-7.018417E-6
514.000000	19.373818	-4.524961E-6
517.000000	20.034215	-4.609007E-6
520.000000	20.137003	-7.972717E-6
523.000000	19.539096	-7.047476E-6
526.000000	20.292242	-4.342166E-6
529.000000	21.208257	-6.007306E-6
532.000000	20.482203	-6.304230E-6
535.000000	19.978203	-2.862715E-6
538.000000	21.533505	-5.390933E-6
541.000000	20.850149	-7.002820E-6
544.000000	20.975920	-3.194926E-6
547.000000	21.312121	-6.037508E-6
550.000000	21.112040	-5.412901E-6
553.000000	21.622479	-4.002695E-6
556.000000	21.591468	-5.422038E-6
559.000000	21.761333	-3.786623E-6
562.000000	22.051667	-4.915800E-6
565.000000	22.152635	-4.626319E-6
568.000000	22.361041	-4.608146E-6
571.000000	22.282562	-5.456846E-6
574.000000	22.666297	-5.129711E-6
577.000000	22.485332	-7.573731E-6
580.000000	22.215361	-5.317871E-6
583.000000	22.941153	-5.824528E-6
586.000000	22.845026	-7.529283E-6
589.000000	23.003427	-5.225921E-6
592.000000	21.648218	-2.829356E-6
595.000000	21.458776	-3.353106E-6
598.000000	21.456665	-2.662174E-6
601.000000	21.781647	-3.693531E-6
604.000000	21.564391	-3.785854E-6
607.000000	21.726976	-4.089146E-6
610.000000	22.187490	-4.260325E-6
613.000000	22.409291	-7.329179E-6
616.000000	21.479345	-8.911323E-6
619.000000	21.805490	-5.194200E-6
622.000000	23.302218	-1.102625E-5
625.000000	19.867535	-1.129039E-5
628.000000	22.298201	-6.575297E-6
631.000000	23.481727	-8.365669E-6
634.000000	23.314061	-1.015079E-5
637.000000	22.947124	-1.281288E-5
640.000000	22.820947	-1.257615E-5
643.000000	23.232898	-1.217202E-5
646.000000	23.404565	-1.462161E-5
649.000000	23.336873	-1.414217E-5
652.000000	23.400174	-1.774415E-5
655.000000	23.008110	-1.604255E-5
658.000000	23.437460	-1.769028E-5
661.000000	23.003207	-2.081038E-5
664.000000	23.225336	-1.857462E-5
667.000000	23.545330	-2.124529E-5
670.000000	23.450835	-2.122445E-5
673.000000	23.444368	-2.217153E-5
676.000000	23.426886	-2.343958E-5
679.000000	23.542316	-2.341403E-5
682.000000	23.225448	-2.351324E-5
685.000000	23.376152	-2.506641E-5
688.000000	23.245119	-2.475807E-5
691.000000	23.022934	-2.479230E-5
694.000000	22.693811	-2.352602E-5
697.000000	22.673139	-2.296491E-5
700.000000	22.088751	-2.462031E-5
703.000000	21.174248	-2.398198E-5
706.000000	20.267581	-2.366192E-5
709.000000	19.740472	-2.227829E-5
712.000000	18.774956	-2.415158E-5
715.000000	17.841582	-1.993404E-5
718.000000	16.613327	-1.758545E-5
721.000000	15.247231	-2.000050E-5
724.000000	13.711929	-1.403701E-5
727.000000	12.455250	-1.437991E-5
730.000000	10.807994	-1.103084E-5
733.000000	9.505054	-9.451188E-6
736.000000	8.047067	-8.093477E-6
739.000000	6.760751	-5.679469E-6
742.000000	5.683453	-5.408465E-6
745.000000	4.657965	-3.611246E-6
748.000000	3.854115	-3.161680E-6
751.000000	3.087114	-2.438537E-6
754.000000	2.470831	-1.701192E-6
757.000000	1.991612	-1.564422E-6
760.000000	1.572897	-1.002422E-6
763.000000	1.187000	-8.267910E-7
766.000000	1.153872	-7.312917E-7
769.000000	0.971768	-5.532155E-7
772.000000	0.706181	-4.455043E-7
775.000000	0.629034	-3.383181E-7
778.000000	0.473047	-2.799038E-7
781.000000	0.417185	-2.341166E-7
784.000000	0.354793	-1.877404E-7
787.000000	0.288193	-1.659803E-7
790.000000	0.269028	-1.409890E-7
793.000000	0.218117	-1.281276E-7
796.000000	0.209918	-1.169447E-7
799.000000	0.186342	-1.041799E-7
802.000000	0.038338	-2.282443E-8
805.000000	0.061353	-3.389948E-8
808.000000	0.068386	-4.169558E-8
811.000000	0.085189	-4.723116E-8
814.000000	0.086315	-5.080769E-8
817.000000	0.090957	-5.352986E-8
820.000000	0.095763	-5.500734E-8
823.000000	0.087427	-5.600495E-8
826.000000	0.098420	-5.676533E-8
829.000000	0.086375	-5.674424E-8
832.000000	0.091239	-5.679538E-8
835.000000	0.083542	-5.647760E-8
838.000000	0.082166	-5.618192E-8
841.000000	0.086878	-5.568345E-8
844.000000	0.078718	-5.509989E-8
847.000000	0.082948	-5.443703E-8
850.000000	0.075399	-5.383550E-8
853.000000	0.079784	-5.322197E-8
856.000000	0.078114	-5.251600E-8
859.000000	0.076452	-5.177630E-8
862.000000	0.082522	-5.107369E-8
865.000000	0.081461	-5.049121E-8
868.000000	0.086292	-4.977381E-8
871.000000	0.087333	-4.917914E-8
874.000000	0.093429	-4.842275E-8
877.000000	0.096726	-4.764752E-8
880.000000	0.097275	-4.714949E-8
883.000000	0.102870	-4.671932E-8
886.000000	0.103204	-4.624190E-8
889.000000	0.106341	-4.574872E-8
892.000000	0.109403	-4.541045E-8
895.000000	0.112886	-4.507395E-8
898.000000	0.112996	-4.479542E-8
901.000000	0.115564	-4.450498E-8
904.000000	0.109743	-4.408089E-8
907.000000	0.111537	-4.388539E-8
910.000000	0.112806	-4.367643E-8
913.000000	0.107179	-4.354017E-8
916.000000	0.113122	-4.348088E-8
919.000000	0.108791	-4.336938E-8
922.000000	0.107641	-4.316492E-8
925.000000	0.112895	-4.306855E-8
928.000000	0.107996	-4.290423E-8
931.000000	0.116580	-4.278504E-8
934.000000	0.109957	-4.276202E-8
937.000000	0.112442	-4.256146E-8
940.000000	0.120241	-4.229932E-8
943.000000	0.117603	-4.210164E-8
946.000000	0.124273	-4.201366E-8
949.000000	0.117581	-4.189816E-8
952.000000	0.123386	-4.171198E-8
955.000000	0.130384	-4.169337E-8
958.000000	0.134532	-4.169834E-8
961.000000	0.140164	-4.168099E-8
964.000000	0.140857	-4.175986E-8
967.000000	0.147835	-4.167815E-8
970.000000	0.150521	-4.177111E-8
973.000000	0.156864	-4.167643E-8
976.000000	0.163564	-4.175526E-8
979.000000	0.177130	-4.175941E-8
982.000000	0.192480	-4.174916E-8
985.000000	0.196414	-4.167394E-8
988.000000	0.201265	-4.175848E-8
991.000000	0.204748	-4.160286E-8
994.000000	0.218860	-4.144934E-8
997.000000	0.225956	-4.141806E-8
1000.000000	0.223878	-4.123969E-8
1003.000000	0.225682	-4.127305E-8
1006.000000	0.232231	-4.128402E-8
1009.000000	0.241607	-4.126936E-8
1012.000000	0.236981	-4.129548E-8
1015.000000	0.233156	-4.129836E-8
1018.000000	0.232264	-4.120905E-8
1021.000000	0.225966	-4.105053E-8
1024.000000	0.218175	-4.102020E-8
1027.000000	0.199521	-4.101607E-8
1030.000000	0.184894	-4.095579E-8
1033.000000	0.176667	-4.088692E-8
1036.000000	0.157881	-4.067208E-8
1039.000000	0.138926	-4.057345E-8
1042.000000	0.155585	-4.068886E-8
1045.000000	0.186353	-4.068152E-8
1048.000000	0.190506	-4.058557E-8
1051.000000	0.186022	-4.050533E-8
1054.000000	0.163465	-4.052439E-8
1057.000000	0.144624	-4.042071E-8
1060.000000	0.127840	-4.043275E-8
1063.000000	0.105288	-4.044033E-8
1066.000000	0.080707	-4.039444E-8
1069.000000	0.037999	-4.056674E-8
1072.000000	0.018567	-4.054782E-8
1075.000000	0.062693	-4.065252E-8
1078.000000	0.089747	-4.061384E-8
1081.000000	0.109812	-4.047273E-8
1084.000000	0.117636	-4.048146E-8
1087.000000	0.129749	-4.052311E-8
1090.000000	0.133133	-4.052855E-8
1093.000000	0.139456	-4.066447E-8
1096.000000	0.141465	-4.070149E-8
1099.000000	0.131500	-4.072765E-8
