Wavelength (nm)	EQE (%)	Current (A)	Dark Current (A) -> 	-2.675596000E-9	
400.000000	15.904919	-3.364056E-7
403.000000	17.557520	-8.440019E-7
406.000000	17.344273	-1.354946E-6
409.000000	17.989421	-1.978384E-6
412.000000	18.369983	-3.094576E-6
415.000000	17.127002	-1.377799E-6
418.000000	18.945573	-1.321607E-6
421.000000	18.148981	-1.488543E-6
424.000000	17.928883	-1.329491E-6
427.000000	17.510322	-1.696798E-6
430.000000	17.358313	-2.683430E-6
433.000000	16.565080	-2.399805E-6
436.000000	16.713741	-2.400451E-6
439.000000	16.641163	-2.622001E-6
442.000000	16.590575	-2.744988E-6
445.000000	16.607165	-3.121936E-6
448.000000	16.421387	-3.504608E-6
451.000000	16.312678	-3.067619E-6
454.000000	17.297921	-2.994494E-6
457.000000	17.484499	-3.379234E-6
460.000000	18.392633	-2.613851E-6
463.000000	17.987450	-4.395253E-6
466.000000	19.642841	-3.780319E-6
469.000000	19.670040	-3.483560E-6
472.000000	20.137758	-3.299842E-6
475.000000	20.013002	-3.110376E-6
478.000000	20.300510	-4.050053E-6
481.000000	22.049985	-3.663079E-6
484.000000	22.044720	-3.531735E-6
487.000000	22.025045	-4.873451E-6
490.000000	23.071118	-4.201549E-6
493.000000	22.866811	-4.234065E-6
496.000000	22.920301	-5.106068E-6
499.000000	24.174455	-5.367298E-6
502.000000	24.895065	-5.021245E-6
505.000000	24.936224	-6.124884E-6
508.000000	24.920370	-7.899805E-6
511.000000	24.554529	-8.948599E-6
514.000000	25.117881	-5.866548E-6
517.000000	25.700807	-5.912645E-6
520.000000	25.655548	-1.015764E-5
523.000000	25.282737	-9.119126E-6
526.000000	26.011977	-5.566084E-6
529.000000	27.170507	-7.696132E-6
532.000000	26.242654	-8.077243E-6
535.000000	25.812879	-3.698777E-6
538.000000	27.761698	-6.950167E-6
541.000000	27.355836	-9.187848E-6
544.000000	26.717816	-4.069497E-6
547.000000	27.688678	-7.843922E-6
550.000000	27.388807	-7.022197E-6
553.000000	27.704391	-5.128562E-6
556.000000	27.982729	-7.027008E-6
559.000000	28.391936	-4.940394E-6
562.000000	28.394808	-6.329825E-6
565.000000	28.659530	-5.985208E-6
568.000000	28.645192	-5.903179E-6
571.000000	28.453103	-6.967969E-6
574.000000	29.352344	-6.642860E-6
577.000000	29.185631	-9.830592E-6
580.000000	29.080948	-6.961342E-6
583.000000	30.221990	-7.673059E-6
586.000000	30.085006	-9.915442E-6
589.000000	30.311052	-6.886068E-6
592.000000	28.714029	-3.752836E-6
595.000000	28.216509	-4.409056E-6
598.000000	28.075130	-3.483341E-6
601.000000	28.637026	-4.856003E-6
604.000000	28.419945	-4.989418E-6
607.000000	28.625796	-5.387545E-6
610.000000	29.065123	-5.580932E-6
613.000000	29.547658	-9.663852E-6
616.000000	27.564947	-1.143611E-5
619.000000	27.905721	-6.647312E-6
622.000000	30.007529	-1.419910E-5
625.000000	26.590536	-1.511096E-5
628.000000	28.732703	-8.472704E-6
631.000000	30.248783	-1.077652E-5
634.000000	30.172868	-1.313707E-5
637.000000	30.060297	-1.678463E-5
640.000000	29.874670	-1.646331E-5
643.000000	30.592286	-1.602770E-5
646.000000	31.017366	-1.937758E-5
649.000000	31.308327	-1.897288E-5
652.000000	31.536532	-2.391388E-5
655.000000	31.028977	-2.163515E-5
658.000000	32.164126	-2.427705E-5
661.000000	31.067767	-2.810617E-5
664.000000	31.674292	-2.533173E-5
667.000000	32.022397	-2.889427E-5
670.000000	31.705787	-2.869569E-5
673.000000	31.803056	-3.007641E-5
676.000000	31.218304	-3.123522E-5
679.000000	31.416262	-3.124507E-5
682.000000	31.440365	-3.182995E-5
685.000000	31.202008	-3.345813E-5
688.000000	30.730725	-3.273089E-5
691.000000	30.530704	-3.287706E-5
694.000000	29.839027	-3.093326E-5
697.000000	29.563194	-2.994363E-5
700.000000	28.948872	-3.226666E-5
703.000000	27.693612	-3.136582E-5
706.000000	26.603033	-3.105841E-5
709.000000	25.897642	-2.922702E-5
712.000000	24.752208	-3.184055E-5
715.000000	23.598636	-2.636628E-5
718.000000	22.115159	-2.340922E-5
721.000000	20.282114	-2.660499E-5
724.000000	18.604429	-1.904550E-5
727.000000	17.046233	-1.968032E-5
730.000000	14.995680	-1.530487E-5
733.000000	13.330314	-1.325477E-5
736.000000	11.383815	-1.144947E-5
739.000000	9.687695	-8.138292E-6
742.000000	8.263106	-7.863305E-6
745.000000	6.778387	-5.255176E-6
748.000000	5.684206	-4.662974E-6
751.000000	4.582236	-3.619546E-6
754.000000	3.704275	-2.550431E-6
757.000000	2.997324	-2.354415E-6
760.000000	2.349821	-1.497563E-6
763.000000	1.906039	-1.327630E-6
766.000000	1.495333	-9.477006E-7
769.000000	1.200394	-6.833689E-7
772.000000	0.947289	-5.976107E-7
775.000000	0.748465	-4.025529E-7
778.000000	0.608199	-3.598739E-7
781.000000	0.492846	-2.765762E-7
784.000000	0.405394	-2.145159E-7
787.000000	0.333111	-1.918503E-7
790.000000	0.274394	-1.438015E-7
793.000000	0.233515	-1.371729E-7
796.000000	0.195442	-1.088800E-7
799.000000	0.168629	-9.427693E-8
802.000000	0.148318	-8.830146E-8
805.000000	0.130118	-7.189439E-8
808.000000	0.112704	-6.871718E-8
811.000000	0.102648	-5.691114E-8
814.000000	0.090246	-5.312142E-8
817.000000	0.081969	-4.824053E-8
820.000000	0.074107	-4.256824E-8
823.000000	0.066513	-4.260787E-8
826.000000	0.062237	-3.589615E-8
829.000000	0.056574	-3.716679E-8
832.000000	0.052940	-3.295450E-8
835.000000	0.048615	-3.286574E-8
838.000000	0.046192	-3.158469E-8
841.000000	0.043837	-2.809647E-8
844.000000	0.040635	-2.844352E-8
847.000000	0.038965	-2.557197E-8
850.000000	0.035933	-2.565613E-8
853.000000	0.034838	-2.323951E-8
856.000000	0.032580	-2.190384E-8
859.000000	0.030869	-2.090552E-8
862.000000	0.029761	-1.841920E-8
865.000000	0.027950	-1.732389E-8
868.000000	0.027045	-1.559988E-8
871.000000	0.025434	-1.432228E-8
874.000000	0.024599	-1.274943E-8
877.000000	0.023381	-1.151735E-8
880.000000	0.022178	-1.074961E-8
883.000000	0.021073	-9.570367E-9
886.000000	0.020448	-9.162004E-9
889.000000	0.019554	-8.412076E-9
892.000000	0.018712	-7.766829E-9
895.000000	0.018234	-7.280688E-9
898.000000	0.017270	-6.846222E-9
901.000000	0.016771	-6.458810E-9
904.000000	0.015574	-6.255860E-9
907.000000	0.014949	-5.881931E-9
910.000000	0.014408	-5.578503E-9
913.000000	0.013565	-5.510590E-9
916.000000	0.013322	-5.120624E-9
919.000000	0.012289	-4.898930E-9
922.000000	0.011739	-4.707432E-9
925.000000	0.011310	-4.314554E-9
928.000000	0.010713	-4.255851E-9
931.000000	0.010556	-3.874174E-9
934.000000	0.009821	-3.819417E-9
937.000000	0.009613	-3.638647E-9
940.000000	0.009498	-3.341178E-9
943.000000	0.008923	-3.194511E-9
946.000000	0.008863	-2.996354E-9
949.000000	0.008268	-2.946216E-9
952.000000	0.008332	-2.816612E-9
955.000000	0.008267	-2.643602E-9
958.000000	0.008108	-2.512946E-9
961.000000	0.008015	-2.383380E-9
964.000000	0.007795	-2.311074E-9
967.000000	0.007988	-2.251935E-9
970.000000	0.007966	-2.210712E-9
973.000000	0.007982	-2.120714E-9
976.000000	0.008210	-2.095924E-9
979.000000	0.008619	-2.032055E-9
982.000000	0.008959	-1.943128E-9
985.000000	0.008698	-1.845463E-9
988.000000	0.009091	-1.886143E-9
991.000000	0.009260	-1.881455E-9
994.000000	0.009583	-1.814843E-9
997.000000	0.009754	-1.787886E-9
1000.000000	0.009533	-1.755988E-9
1003.000000	0.009784	-1.789306E-9
1006.000000	0.009678	-1.720536E-9
1009.000000	0.010242	-1.749541E-9
1012.000000	0.009943	-1.732711E-9
1015.000000	0.009575	-1.695976E-9
1018.000000	0.009463	-1.679036E-9
1021.000000	0.009498	-1.725410E-9
1024.000000	0.008976	-1.687565E-9
1027.000000	0.008404	-1.727654E-9
1030.000000	0.007527	-1.667210E-9
1033.000000	0.007237	-1.674940E-9
1036.000000	0.006733	-1.734578E-9
1039.000000	0.005893	-1.721063E-9
1042.000000	0.006363	-1.663944E-9
1045.000000	0.007748	-1.691383E-9
1048.000000	0.007827	-1.667380E-9
1051.000000	0.007759	-1.689536E-9
1054.000000	0.006802	-1.686204E-9
1057.000000	0.006121	-1.710653E-9
1060.000000	0.005306	-1.678260E-9
1063.000000	0.004379	-1.681985E-9
1066.000000	0.003318	-1.660711E-9
1069.000000	0.001593	-1.700674E-9
1072.000000	0.000832	-1.817736E-9
1075.000000	0.002652	-1.719392E-9
1078.000000	0.003651	-1.652234E-9
1081.000000	0.004592	-1.692393E-9
1084.000000	0.004837	-1.664487E-9
1087.000000	0.005331	-1.665045E-9
1090.000000	0.005338	-1.624924E-9
1093.000000	0.005763	-1.680549E-9
1096.000000	0.005591	-1.608729E-9
1099.000000	0.005349	-1.656582E-9
