Wavelength (nm)	EQE (%)	Current (A)	Dark Current (A) -> 	-105.469620000E-12	
400.000000	18.469781	-3.906551E-7
403.000000	20.027398	-9.627306E-7
406.000000	19.576064	-1.529295E-6
409.000000	20.473925	-2.251617E-6
412.000000	20.486275	-3.451083E-6
415.000000	19.474154	-1.566618E-6
418.000000	21.474929	-1.498050E-6
421.000000	20.871969	-1.711877E-6
424.000000	20.830402	-1.544649E-6
427.000000	20.760158	-2.011716E-6
430.000000	20.800252	-3.215521E-6
433.000000	20.307954	-2.942040E-6
436.000000	20.443192	-2.936080E-6
439.000000	20.163535	-3.176990E-6
442.000000	20.345434	-3.366247E-6
445.000000	20.413991	-3.837571E-6
448.000000	20.428466	-4.359788E-6
451.000000	20.288101	-3.815202E-6
454.000000	21.468898	-3.716544E-6
457.000000	21.550064	-4.164987E-6
460.000000	22.491982	-3.196426E-6
463.000000	21.982648	-5.371484E-6
466.000000	23.511541	-4.524861E-6
469.000000	23.810926	-4.216910E-6
472.000000	24.319125	-3.985015E-6
475.000000	24.269375	-3.771892E-6
478.000000	24.712349	-4.930237E-6
481.000000	26.103303	-4.336441E-6
484.000000	25.699724	-4.117295E-6
487.000000	26.273172	-5.813428E-6
490.000000	26.422708	-4.811917E-6
493.000000	26.462548	-4.899859E-6
496.000000	26.887422	-5.989843E-6
499.000000	27.279216	-6.056628E-6
502.000000	27.787174	-5.604573E-6
505.000000	28.025744	-6.883738E-6
508.000000	27.828886	-8.821810E-6
511.000000	27.848455	-1.014903E-5
514.000000	27.923611	-6.521856E-6
517.000000	28.299879	-6.510579E-6
520.000000	28.478011	-1.127512E-5
523.000000	28.036279	-1.011229E-5
526.000000	28.626455	-6.125534E-6
529.000000	28.853753	-8.172917E-6
532.000000	28.970850	-8.916956E-6
535.000000	28.789020	-4.125234E-6
538.000000	29.407196	-7.362119E-6
541.000000	28.892141	-9.703838E-6
544.000000	28.423142	-4.329242E-6
547.000000	29.271954	-8.292448E-6
550.000000	28.839901	-7.394242E-6
553.000000	28.776549	-5.327037E-6
556.000000	28.770533	-7.224841E-6
559.000000	29.266206	-5.092523E-6
562.000000	28.907498	-6.444115E-6
565.000000	29.210416	-6.100254E-6
568.000000	28.782571	-5.931490E-6
571.000000	29.030686	-7.109415E-6
574.000000	28.501558	-6.450315E-6
577.000000	29.061934	-9.788927E-6
580.000000	28.605240	-6.847468E-6
583.000000	28.653483	-7.274831E-6
586.000000	28.446104	-9.375291E-6
589.000000	28.746738	-6.530687E-6
592.000000	27.740609	-3.625613E-6
595.000000	27.487190	-4.295094E-6
598.000000	27.178805	-3.372132E-6
601.000000	27.589841	-4.678431E-6
604.000000	27.217339	-4.778288E-6
607.000000	27.143139	-5.108500E-6
610.000000	27.571675	-5.294168E-6
613.000000	27.441713	-8.975082E-6
616.000000	25.997164	-1.078567E-5
619.000000	26.236217	-6.249626E-6
622.000000	26.868775	-1.271389E-5
625.000000	25.469687	-1.447400E-5
628.000000	26.120954	-7.702551E-6
631.000000	26.494233	-9.438913E-6
634.000000	26.371364	-1.148192E-5
637.000000	25.875976	-1.444825E-5
640.000000	25.632921	-1.412577E-5
643.000000	26.001697	-1.362263E-5
646.000000	26.475780	-1.654030E-5
649.000000	26.624623	-1.613455E-5
652.000000	26.598668	-2.016954E-5
655.000000	26.461088	-1.845016E-5
658.000000	26.887508	-2.029433E-5
661.000000	26.285785	-2.378004E-5
664.000000	26.370655	-2.109011E-5
667.000000	26.363893	-2.378852E-5
670.000000	26.099826	-2.362195E-5
673.000000	26.225691	-2.480185E-5
676.000000	25.823188	-2.583718E-5
679.000000	25.767743	-2.562733E-5
682.000000	25.406453	-2.572127E-5
685.000000	25.153274	-2.697203E-5
688.000000	24.857345	-2.647523E-5
691.000000	24.380994	-2.625473E-5
694.000000	23.863584	-2.473869E-5
697.000000	23.609875	-2.391370E-5
700.000000	22.662683	-2.526002E-5
703.000000	21.693901	-2.457054E-5
706.000000	20.704121	-2.417157E-5
709.000000	19.735634	-2.227283E-5
712.000000	18.743223	-2.411076E-5
715.000000	17.695889	-1.977126E-5
718.000000	16.484335	-1.744891E-5
721.000000	14.950649	-1.961146E-5
724.000000	13.570327	-1.389205E-5
727.000000	12.281958	-1.417984E-5
730.000000	10.684991	-1.090530E-5
733.000000	9.493912	-9.440109E-6
736.000000	8.103443	-8.150179E-6
739.000000	6.898815	-5.795452E-6
742.000000	5.945050	-5.657405E-6
745.000000	4.913514	-3.809369E-6
748.000000	4.149337	-3.403862E-6
751.000000	3.397108	-2.683404E-6
754.000000	2.806817	-1.932522E-6
757.000000	2.332752	-1.832390E-6
760.000000	1.885458	-1.201620E-6
763.000000	1.577023	-1.098457E-6
766.000000	1.298474	-8.229367E-7
769.000000	1.085756	-6.181073E-7
772.000000	0.902148	-5.691330E-7
775.000000	0.756022	-4.066173E-7
778.000000	0.650623	-3.849763E-7
781.000000	0.555154	-3.115423E-7
784.000000	0.486520	-2.574439E-7
787.000000	0.428223	-2.466286E-7
790.000000	0.377247	-1.977036E-7
793.000000	0.339881	-1.996551E-7
796.000000	0.304251	-1.694971E-7
799.000000	0.278174	-1.555208E-7
802.000000	0.254463	-1.514954E-7
805.000000	0.232788	-1.286223E-7
808.000000	0.214243	-1.306269E-7
811.000000	0.197306	-1.093924E-7
814.000000	0.185278	-1.090598E-7
817.000000	0.170939	-1.006009E-7
820.000000	0.161101	-9.253867E-8
823.000000	0.151554	-9.708462E-8
826.000000	0.141615	-8.167886E-8
829.000000	0.134810	-8.856416E-8
832.000000	0.125427	-7.807650E-8
835.000000	0.120326	-8.134530E-8
838.000000	0.113462	-7.758125E-8
841.000000	0.106826	-6.846859E-8
844.000000	0.100575	-7.039949E-8
847.000000	0.094982	-6.233446E-8
850.000000	0.089886	-6.417905E-8
853.000000	0.084213	-5.617688E-8
856.000000	0.079568	-5.349391E-8
859.000000	0.074616	-5.053272E-8
862.000000	0.070528	-4.365049E-8
865.000000	0.065889	-4.083935E-8
868.000000	0.062488	-3.604356E-8
871.000000	0.059191	-3.333195E-8
874.000000	0.055787	-2.891323E-8
877.000000	0.052063	-2.564656E-8
880.000000	0.049286	-2.388924E-8
883.000000	0.046208	-2.098565E-8
886.000000	0.043676	-1.956962E-8
889.000000	0.040746	-1.752909E-8
892.000000	0.038271	-1.588547E-8
895.000000	0.036089	-1.440979E-8
898.000000	0.033556	-1.330253E-8
901.000000	0.031471	-1.211962E-8
904.000000	0.029446	-1.182772E-8
907.000000	0.027158	-1.068565E-8
910.000000	0.025451	-9.854121E-9
913.000000	0.023689	-9.623381E-9
916.000000	0.021915	-8.423534E-9
919.000000	0.020450	-8.152478E-9
922.000000	0.018799	-7.538426E-9
925.000000	0.017393	-6.635274E-9
928.000000	0.016185	-6.429786E-9
931.000000	0.014843	-5.447538E-9
934.000000	0.013746	-5.345603E-9
937.000000	0.012576	-4.760143E-9
940.000000	0.011638	-4.094042E-9
943.000000	0.010655	-3.814623E-9
946.000000	0.009667	-3.268281E-9
949.000000	0.008890	-3.167666E-9
952.000000	0.008081	-2.731894E-9
955.000000	0.007462	-2.386157E-9
958.000000	0.006827	-2.115886E-9
961.000000	0.006194	-1.842064E-9
964.000000	0.005645	-1.673705E-9
967.000000	0.005154	-1.453053E-9
970.000000	0.004685	-1.299999E-9
973.000000	0.004276	-1.135981E-9
976.000000	0.003916	-9.995799E-10
979.000000	0.003615	-8.523384E-10
982.000000	0.003344	-7.252922E-10
985.000000	0.003020	-6.408434E-10
988.000000	0.002744	-5.692750E-10
991.000000	0.002529	-5.138731E-10
994.000000	0.002351	-4.451859E-10
997.000000	0.002186	-4.007354E-10
1000.000000	0.001996	-3.676174E-10
1003.000000	0.001842	-3.368809E-10
1006.000000	0.001694	-3.011526E-10
1009.000000	0.001559	-2.662454E-10
1012.000000	0.001471	-2.563269E-10
1015.000000	0.001351	-2.392107E-10
1018.000000	0.001276	-2.264584E-10
1021.000000	0.001138	-2.068141E-10
1024.000000	0.001040	-1.954875E-10
1027.000000	0.000952	-1.957923E-10
1030.000000	0.000876	-1.940855E-10
1033.000000	0.000785	-1.817557E-10
1036.000000	0.000697	-1.795500E-10
1039.000000	0.000607	-1.773270E-10
1042.000000	0.000600	-1.569201E-10
1045.000000	0.000625	-1.364136E-10
1048.000000	0.000592	-1.260195E-10
1051.000000	0.000571	-1.243478E-10
1054.000000	0.000505	-1.251923E-10
1057.000000	0.000443	-1.236790E-10
1060.000000	0.000393	-1.242598E-10
1063.000000	0.000345	-1.323487E-10
1066.000000	0.000289	-1.444966E-10
1069.000000	0.000209	-2.235316E-10
1072.000000	0.000160	-3.494219E-10
1075.000000	0.000208	-1.348827E-10
1078.000000	0.000242	-1.092905E-10
1081.000000	0.000269	-9.897852E-11
1084.000000	0.000268	-9.212146E-11
1087.000000	0.000278	-8.685988E-11
1090.000000	0.000275	-8.363964E-11
1093.000000	0.000283	-8.244889E-11
1096.000000	0.000272	-7.826080E-11
1099.000000	0.000249	-7.702901E-11
