Wavelength (nm)	EQE (%)	Current (A)	Dark Current (A) -> 	-72.878428000E-12	
400.000000	28.608038	-6.050898E-7
403.000000	30.533062	-1.467745E-6
406.000000	28.775167	-2.247935E-6
409.000000	28.951990	-3.183991E-6
412.000000	28.541859	-4.808113E-6
415.000000	27.136137	-2.182994E-6
418.000000	29.304042	-2.044194E-6
421.000000	27.831552	-2.282688E-6
424.000000	27.645338	-2.050001E-6
427.000000	27.078679	-2.623998E-6
430.000000	26.388216	-4.079367E-6
433.000000	25.770733	-3.733440E-6
436.000000	25.414777	-3.650106E-6
439.000000	25.192471	-3.969355E-6
442.000000	25.208337	-4.170837E-6
445.000000	24.747906	-4.652292E-6
448.000000	24.421170	-5.211900E-6
451.000000	23.780271	-4.471909E-6
454.000000	25.278209	-4.375985E-6
457.000000	24.820588	-4.797082E-6
460.000000	25.842010	-3.672512E-6
463.000000	24.787813	-6.056929E-6
466.000000	26.182332	-5.038862E-6
469.000000	26.021567	-4.608414E-6
472.000000	26.149600	-4.284963E-6
475.000000	25.762589	-4.003964E-6
478.000000	26.075503	-5.202193E-6
481.000000	27.112915	-4.504164E-6
484.000000	27.041095	-4.332193E-6
487.000000	26.518385	-5.867686E-6
490.000000	27.434388	-4.996157E-6
493.000000	26.999408	-4.999265E-6
496.000000	27.072681	-6.031114E-6
499.000000	27.373782	-6.077624E-6
502.000000	27.850780	-5.617402E-6
505.000000	27.508315	-6.756646E-6
508.000000	27.044332	-8.573105E-6
511.000000	26.381047	-9.614251E-6
514.000000	27.271343	-6.369512E-6
517.000000	27.866638	-6.410909E-6
520.000000	26.754396	-1.059270E-5
523.000000	26.075424	-9.405037E-6
526.000000	28.009135	-5.993439E-6
529.000000	27.942205	-7.914718E-6
532.000000	27.745322	-8.539750E-6
535.000000	28.259144	-4.049307E-6
538.000000	28.740141	-7.195121E-6
541.000000	27.565549	-9.258283E-6
544.000000	28.219096	-4.298163E-6
547.000000	28.218782	-7.994095E-6
550.000000	28.203576	-7.231095E-6
553.000000	28.611388	-5.296463E-6
556.000000	28.352258	-7.119804E-6
559.000000	29.069065	-5.058219E-6
562.000000	28.848070	-6.430867E-6
565.000000	28.958312	-6.047605E-6
568.000000	28.482332	-5.869617E-6
571.000000	28.326203	-6.936892E-6
574.000000	28.575973	-6.467156E-6
577.000000	27.627634	-9.305812E-6
580.000000	28.259448	-6.764693E-6
583.000000	27.804521	-7.059288E-6
586.000000	27.877324	-9.187832E-6
589.000000	28.144023	-6.393762E-6
592.000000	27.376523	-3.578028E-6
595.000000	27.327159	-4.270088E-6
598.000000	27.031068	-3.353802E-6
601.000000	26.819673	-4.547833E-6
604.000000	26.581843	-4.666720E-6
607.000000	27.022531	-5.085801E-6
610.000000	27.024400	-5.189083E-6
613.000000	26.559150	-8.686431E-6
616.000000	25.304528	-1.049831E-5
619.000000	25.970426	-6.186313E-6
622.000000	26.383510	-1.248427E-5
625.000000	23.821161	-1.353717E-5
628.000000	25.972253	-7.658702E-6
631.000000	26.686770	-9.507507E-6
634.000000	26.001285	-1.132079E-5
637.000000	25.282673	-1.411697E-5
640.000000	25.025295	-1.379092E-5
643.000000	25.516540	-1.336845E-5
646.000000	25.331291	-1.582530E-5
649.000000	25.262331	-1.530900E-5
652.000000	24.979580	-1.894180E-5
655.000000	24.762673	-1.726593E-5
658.000000	25.076400	-1.892733E-5
661.000000	24.179013	-2.187410E-5
664.000000	24.605643	-1.967853E-5
667.000000	24.733252	-2.231717E-5
670.000000	24.516000	-2.218849E-5
673.000000	24.602526	-2.326681E-5
676.000000	24.309928	-2.432310E-5
679.000000	24.406847	-2.427385E-5
682.000000	24.479252	-2.478258E-5
685.000000	24.328034	-2.608712E-5
688.000000	24.123555	-2.569368E-5
691.000000	24.288344	-2.615496E-5
694.000000	24.003406	-2.488364E-5
697.000000	24.104539	-2.441473E-5
700.000000	23.638864	-2.634808E-5
703.000000	23.038381	-2.609330E-5
706.000000	22.333593	-2.607394E-5
709.000000	21.825174	-2.463100E-5
712.000000	20.899963	-2.688513E-5
715.000000	20.019774	-2.236769E-5
718.000000	18.802016	-1.990221E-5
721.000000	17.206047	-2.256997E-5
724.000000	15.583264	-1.595271E-5
727.000000	14.097196	-1.627558E-5
730.000000	12.169012	-1.241992E-5
733.000000	10.716622	-1.065589E-5
736.000000	9.066822	-9.119114E-6
739.000000	7.625860	-6.406217E-6
742.000000	6.449977	-6.137902E-6
745.000000	5.212884	-4.041466E-6
748.000000	4.379993	-3.593078E-6
751.000000	3.536538	-2.793541E-6
754.000000	2.879592	-1.982628E-6
757.000000	2.360505	-1.854190E-6
760.000000	1.867880	-1.190418E-6
763.000000	1.534880	-1.069103E-6
766.000000	1.239890	-7.858080E-7
769.000000	1.014571	-5.775823E-7
772.000000	0.824880	-5.203878E-7
775.000000	0.679528	-3.654758E-7
778.000000	0.575982	-3.408105E-7
781.000000	0.483140	-2.711293E-7
784.000000	0.415317	-2.197669E-7
787.000000	0.358459	-2.064490E-7
790.000000	0.310226	-1.625797E-7
793.000000	0.276427	-1.623802E-7
796.000000	0.244159	-1.360204E-7
799.000000	0.221039	-1.235781E-7
802.000000	0.199437	-1.187358E-7
805.000000	0.180109	-9.951564E-8
808.000000	0.165476	-1.008930E-7
811.000000	0.150569	-8.348027E-8
814.000000	0.141231	-8.313270E-8
817.000000	0.129881	-7.643771E-8
820.000000	0.121741	-6.992988E-8
823.000000	0.114289	-7.321280E-8
826.000000	0.105942	-6.110363E-8
829.000000	0.101192	-6.647858E-8
832.000000	0.094273	-5.868388E-8
835.000000	0.089978	-6.082870E-8
838.000000	0.084504	-5.778037E-8
841.000000	0.079967	-5.125370E-8
844.000000	0.075169	-5.261585E-8
847.000000	0.071058	-4.663386E-8
850.000000	0.067553	-4.823359E-8
853.000000	0.063576	-4.241036E-8
856.000000	0.060334	-4.056275E-8
859.000000	0.056924	-3.855146E-8
862.000000	0.053639	-3.319801E-8
865.000000	0.050346	-3.120570E-8
868.000000	0.047629	-2.747299E-8
871.000000	0.045048	-2.536752E-8
874.000000	0.042727	-2.214484E-8
877.000000	0.039915	-1.966219E-8
880.000000	0.037561	-1.820579E-8
883.000000	0.035449	-1.609931E-8
886.000000	0.033354	-1.494477E-8
889.000000	0.031297	-1.346411E-8
892.000000	0.029393	-1.220048E-8
895.000000	0.027626	-1.103067E-8
898.000000	0.025781	-1.022036E-8
901.000000	0.024146	-9.298784E-9
904.000000	0.022621	-9.086430E-9
907.000000	0.020904	-8.225033E-9
910.000000	0.019579	-7.580671E-9
913.000000	0.018265	-7.420089E-9
916.000000	0.016814	-6.462761E-9
919.000000	0.015769	-6.286181E-9
922.000000	0.014483	-5.807961E-9
925.000000	0.013416	-5.117931E-9
928.000000	0.012482	-4.958818E-9
931.000000	0.011442	-4.199195E-9
934.000000	0.010645	-4.139711E-9
937.000000	0.009755	-3.692594E-9
940.000000	0.008949	-3.148183E-9
943.000000	0.008236	-2.948521E-9
946.000000	0.007499	-2.535175E-9
949.000000	0.006849	-2.440537E-9
952.000000	0.006310	-2.133125E-9
955.000000	0.005743	-1.836437E-9
958.000000	0.005314	-1.647108E-9
961.000000	0.004855	-1.443803E-9
964.000000	0.004445	-1.317865E-9
967.000000	0.004026	-1.135059E-9
970.000000	0.003654	-1.013956E-9
973.000000	0.003340	-8.873796E-10
976.000000	0.003078	-7.857735E-10
979.000000	0.002822	-6.654027E-10
982.000000	0.002609	-5.659488E-10
985.000000	0.002360	-5.006635E-10
988.000000	0.002151	-4.463764E-10
991.000000	0.001929	-3.920477E-10
994.000000	0.001801	-3.411567E-10
997.000000	0.001670	-3.060681E-10
1000.000000	0.001510	-2.781883E-10
1003.000000	0.001393	-2.546725E-10
1006.000000	0.001284	-2.281887E-10
1009.000000	0.001180	-2.016286E-10
1012.000000	0.001102	-1.919853E-10
1015.000000	0.001022	-1.809519E-10
1018.000000	0.000896	-1.590082E-10
1021.000000	0.000838	-1.523153E-10
1024.000000	0.000751	-1.412527E-10
1027.000000	0.000687	-1.413114E-10
1030.000000	0.000611	-1.352637E-10
1033.000000	0.000567	-1.312516E-10
1036.000000	0.000512	-1.318558E-10
1039.000000	0.000432	-1.262481E-10
1042.000000	0.000466	-1.217550E-10
1045.000000	0.000423	-9.244402E-11
1048.000000	0.000406	-8.654313E-11
1051.000000	0.000423	-9.210387E-11
1054.000000	0.000375	-9.287815E-11
1057.000000	0.000368	-1.027619E-10
1060.000000	0.000278	-8.785700E-11
1063.000000	0.000246	-9.463191E-11
1066.000000	0.000210	-1.052547E-10
1069.000000	0.000168	-1.788989E-10
1072.000000	0.000128	-2.800710E-10
1075.000000	0.000149	-9.689022E-11
1078.000000	0.000175	-7.919335E-11
1081.000000	0.000166	-6.105652E-11
1084.000000	0.000195	-6.718030E-11
1087.000000	0.000197	-6.148473E-11
1090.000000	0.000172	-5.251015E-11
1093.000000	0.000156	-4.557100E-11
1096.000000	0.000173	-4.987056E-11
1099.000000	0.000163	-5.060956E-11
