Voltage (V)	Current (A)	Current Density (A/m^2)	 Dividing Wavelength (nm) = 810  Light Power Density (W/m^2) = 1094.384842  Total Light Power Density (W/m^2) = 1094.384842	
-0.199847	-0.002143	-267.911125
-0.189767	-0.002135	-266.929250
-0.179718	-0.002128	-265.984625
-0.169604	-0.002126	-265.779000
-0.159488	-0.002126	-265.783000
-0.149446	-0.002124	-265.491250
-0.139333	-0.002133	-266.686125
-0.129257	-0.002117	-264.633625
-0.119205	-0.002135	-266.879875
-0.109090	-0.002113	-264.101125
-0.098987	-0.002135	-266.819750
-0.088944	-0.002121	-265.084500
-0.078829	-0.002101	-262.620125
-0.068751	-0.002107	-263.373000
-0.058632	-0.002107	-263.435125
-0.048589	-0.002101	-262.574750
-0.038473	-0.002119	-264.812500
-0.028366	-0.002114	-264.270375
-0.018319	-0.002101	-262.678500
-0.008245	-0.002089	-261.098875
0.001832	-0.002093	-261.667000
0.011885	-0.002065	-258.134875
0.021952	-0.002103	-262.831875
0.032066	-0.002089	-261.157625
0.042113	-0.002102	-262.776250
0.052233	-0.002082	-260.217000
0.062312	-0.002079	-259.903875
0.072381	-0.002076	-259.481875
0.082466	-0.002047	-255.821250
0.092584	-0.002056	-256.949625
0.102629	-0.002046	-255.711125
0.112741	-0.002052	-256.438750
0.122822	-0.002044	-255.521625
0.132867	-0.002046	-255.789625
0.142974	-0.002036	-254.536625
0.153087	-0.002035	-254.378625
0.163176	-0.002017	-252.091250
0.173219	-0.002027	-253.322125
0.183333	-0.002022	-252.724250
0.193446	-0.002013	-251.595000
0.203495	-0.002000	-250.007750
0.213576	-0.002031	-253.866250
0.223686	-0.001986	-248.191875
0.233733	-0.001998	-249.784000
0.243843	-0.001980	-247.486750
0.253916	-0.001977	-247.116750
0.263992	-0.001983	-247.922000
0.274081	-0.001967	-245.841750
0.284190	-0.001970	-246.257750
0.294239	-0.001940	-242.464250
0.304342	-0.001931	-241.343375
0.314424	-0.001929	-241.186125
0.324478	-0.001907	-238.422125
0.334589	-0.001929	-241.101500
0.344703	-0.001890	-236.194750
0.354741	-0.001878	-234.775125
0.364820	-0.001874	-234.211750
0.374942	-0.001870	-233.801250
0.384989	-0.001836	-229.526125
0.395092	-0.001824	-228.041125
0.405174	-0.001797	-224.617125
0.415277	-0.001787	-223.351375
0.425330	-0.001773	-221.604625
0.435449	-0.001766	-220.744000
0.445527	-0.001717	-214.659500
0.455606	-0.001694	-211.688625
0.465679	-0.001676	-209.471875
0.475793	-0.001644	-205.503625
0.485843	-0.001620	-202.497750
0.495960	-0.001578	-197.233125
0.506035	-0.001576	-197.053000
0.516086	-0.001524	-190.462875
0.526190	-0.001479	-184.904250
0.536304	-0.001451	-181.357250
0.546356	-0.001400	-175.001125
0.556428	-0.001351	-168.863000
0.566544	-0.001311	-163.916500
0.576585	-0.001256	-156.967375
0.586700	-0.001198	-149.691875
0.596777	-0.001139	-142.412125
0.606870	-0.001079	-134.846500
0.616947	-0.001012	-126.527875
0.627036	-0.000948	-118.516650
0.637079	-0.000876	-109.440725
0.647192	-0.000796	-99.458312
0.657273	-0.000717	-89.606863
0.667380	-0.000634	-79.285538
0.677424	-0.000542	-67.754825
0.687533	-0.000436	-54.457613
0.697608	-0.000339	-42.339775
0.707654	-0.000227	-28.383550
0.717768	-0.000108	-13.514063
0.727862	1.586165E-5	1.982706
0.737913	0.000145	18.094638
0.747992	0.000290	36.198250
0.758097	0.000440	54.946488
0.768151	0.000604	75.521975
0.778262	0.000773	96.648163
0.788362	0.000965	120.658125
0.798456	0.001164	145.450875
0.808523	0.001375	171.812625
0.818635	0.001601	200.154750
0.828685	0.001838	229.759000
0.838804	0.002092	261.444875
0.848885	0.002357	294.650500
0.858923	0.002636	329.470375
0.869043	0.002928	366.061875
0.879160	0.003234	404.243500
0.889245	0.003551	443.899500
0.899278	0.003877	484.650000
0.909396	0.004218	527.289750
0.919495	0.004570	571.196625
0.929534	0.004926	615.787875
0.939653	0.005300	662.546375
0.949727	0.005676	709.506625
0.959782	0.006065	758.148000
0.969887	0.006461	807.594250
0.980005	0.006869	858.575125
0.990041	0.007279	909.849375
1.000123	0.007690	961.280000
