Voltage (V)	Current (A)	Current Density (A/m^2)	 Dividing Wavelength (nm) = 640  Light Power Density (W/m^2) = 1053.797256  Total Light Power Density (W/m^2) = 1053.797256	
-0.199980	-0.000189	-23.603688
-0.187897	-0.000190	-23.707213
-0.175745	-0.000188	-23.464875
-0.163636	-0.000188	-23.533213
-0.151483	-0.000189	-23.578850
-0.139376	-0.000189	-23.677100
-0.127223	-0.000188	-23.442650
-0.115142	-0.000186	-23.253825
-0.103032	-0.000183	-22.899587
-0.090882	-0.000183	-22.937362
-0.078775	-0.000185	-23.163088
-0.066626	-0.000183	-22.910475
-0.054547	-0.000182	-22.799388
-0.042395	-0.000183	-22.929175
-0.030281	-0.000182	-22.747575
-0.018170	-0.000182	-22.768513
-0.006018	-0.000182	-22.751625
0.006039	-0.000182	-22.716775
0.018192	-0.000180	-22.439525
0.030305	-0.000180	-22.439588
0.042387	-0.000179	-22.344575
0.054540	-0.000178	-22.298363
0.066654	-0.000179	-22.422912
0.078805	-0.000176	-22.005113
0.090881	-0.000178	-22.219425
0.103033	-0.000175	-21.918413
0.115143	-0.000173	-21.654050
0.127259	-0.000173	-21.679775
0.139412	-0.000174	-21.793175
0.151488	-0.000173	-21.619412
0.163643	-0.000173	-21.580213
0.175751	-0.000171	-21.427412
0.187906	-0.000172	-21.512900
0.199989	-0.000170	-21.241138
0.212098	-0.000170	-21.194038
0.224251	-0.000170	-21.283713
0.236363	-0.000166	-20.799825
0.248512	-0.000166	-20.765100
0.260587	-0.000167	-20.883175
0.272738	-0.000167	-20.912337
0.284854	-0.000164	-20.533563
0.296934	-0.000164	-20.472050
0.309084	-0.000163	-20.376825
0.321193	-0.000162	-20.213775
0.333350	-0.000161	-20.099238
0.345465	-0.000158	-19.796338
0.357608	-0.000158	-19.794588
0.369694	-0.000158	-19.794838
0.381804	-0.000156	-19.502225
0.393951	-0.000155	-19.334150
0.406032	-0.000152	-19.059125
0.418185	-0.000153	-19.099525
0.430297	-0.000152	-18.973500
0.442409	-0.000149	-18.577113
0.454560	-0.000146	-18.298550
0.466639	-0.000146	-18.262675
0.478792	-0.000144	-18.041000
0.490902	-0.000143	-17.883100
0.503050	-0.000141	-17.667500
0.515132	-0.000138	-17.227588
0.527244	-0.000137	-17.095000
0.539394	-0.000134	-16.732650
0.551501	-0.000132	-16.442975
0.563655	-0.000128	-15.990175
0.575736	-0.000126	-15.785962
0.587878	-0.000123	-15.352188
0.600002	-0.000118	-14.771063
0.612078	-0.000114	-14.206100
0.624229	-0.000110	-13.712175
0.636338	-0.000105	-13.114963
0.648514	-9.965814E-5	-12.457268
0.660631	-9.302119E-5	-11.627649
0.672768	-8.659027E-5	-10.823784
0.684849	-7.978635E-5	-9.973294
0.696956	-7.116907E-5	-8.896134
0.709108	-6.144511E-5	-7.680639
0.721185	-4.959260E-5	-6.199075
0.733361	-3.687497E-5	-4.609371
0.745443	-2.373822E-5	-2.967278
0.757601	-5.998752E-6	-0.749844
0.769690	1.260784E-5	1.575980
0.781764	3.490340E-5	4.362925
0.793906	6.032567E-5	7.540709
0.806010	8.978938E-5	11.223673
0.818176	0.000123	15.403975
0.830260	0.000161	20.158363
0.842366	0.000203	25.395663
0.854517	0.000251	31.366963
0.866634	0.000304	38.046087
0.878776	0.000362	45.265187
0.890858	0.000426	53.250500
0.903005	0.000495	61.875450
0.915115	0.000568	71.015575
0.927188	0.000648	80.968475
0.939375	0.000733	91.674738
0.951450	0.000821	102.579425
0.963590	0.000917	114.644213
0.975706	0.001019	127.418875
0.987874	0.001121	140.135625
0.999958	0.001233	154.165000
