Voltage (V)	Current (A)	Current Density (A/m^2)	 Dividing Wavelength (nm) = 660  Light Power Density (W/m^2) = 1053.797256  Total Light Power Density (W/m^2) = 1053.797256	
-0.199981	-0.000134	-16.756638
-0.187896	-0.000130	-16.237775
-0.175745	-0.000133	-16.622888
-0.163636	-0.000132	-16.476813
-0.151483	-0.000131	-16.432550
-0.139375	-0.000132	-16.518113
-0.127223	-0.000132	-16.501613
-0.115142	-0.000133	-16.578400
-0.103033	-0.000132	-16.476862
-0.090883	-0.000131	-16.407300
-0.078776	-0.000131	-16.333787
-0.066626	-0.000132	-16.507225
-0.054548	-0.000132	-16.516188
-0.042396	-0.000131	-16.428838
-0.030282	-0.000132	-16.469850
-0.018170	-0.000130	-16.243950
-0.006018	-0.000129	-16.173388
0.006038	-0.000130	-16.244387
0.018191	-0.000129	-16.114713
0.030304	-0.000130	-16.207387
0.042386	-0.000130	-16.212563
0.054539	-0.000130	-16.200125
0.066652	-0.000130	-16.188038
0.078803	-0.000129	-16.120850
0.090879	-0.000127	-15.850700
0.103031	-0.000127	-15.880375
0.115141	-0.000127	-15.885513
0.127258	-0.000127	-15.824087
0.139410	-0.000127	-15.879475
0.151487	-0.000126	-15.773612
0.163640	-0.000126	-15.744613
0.175749	-0.000126	-15.784625
0.187904	-0.000126	-15.725025
0.199988	-0.000125	-15.627687
0.212096	-0.000125	-15.660637
0.224249	-0.000124	-15.506375
0.236362	-0.000125	-15.602638
0.248511	-0.000124	-15.532050
0.260586	-0.000124	-15.534750
0.272737	-0.000123	-15.414475
0.284853	-0.000123	-15.358050
0.296931	-0.000121	-15.177050
0.309082	-0.000122	-15.190275
0.321191	-0.000121	-15.114050
0.333349	-0.000120	-14.981213
0.345463	-0.000120	-15.001938
0.357606	-0.000119	-14.883938
0.369692	-0.000118	-14.746350
0.381802	-0.000119	-14.877088
0.393950	-0.000118	-14.736300
0.406030	-0.000117	-14.652475
0.418183	-0.000116	-14.505213
0.430294	-0.000115	-14.364700
0.442407	-0.000115	-14.379150
0.454558	-0.000114	-14.258850
0.466637	-0.000112	-13.981225
0.478791	-0.000111	-13.913363
0.490899	-0.000110	-13.762450
0.503049	-0.000108	-13.552500
0.515131	-0.000108	-13.442763
0.527244	-0.000106	-13.302213
0.539392	-0.000104	-13.027425
0.551500	-0.000101	-12.654663
0.563654	-0.000101	-12.586225
0.575760	-9.810333E-5	-12.262916
0.587901	-9.540319E-5	-11.925399
0.600026	-9.192309E-5	-11.490386
0.612100	-8.874167E-5	-11.092709
0.624249	-8.422734E-5	-10.528418
0.636360	-7.998702E-5	-9.998378
0.648505	-7.462495E-5	-9.328119
0.660621	-6.667893E-5	-8.334866
0.672759	-5.924804E-5	-7.406005
0.684839	-4.768118E-5	-5.960147
0.696947	-3.496838E-5	-4.371048
0.709095	-1.901009E-5	-2.376261
0.721116	1.212261E-7	0.015153
0.733341	2.497060E-5	3.121325
0.745420	5.421934E-5	6.777418
0.757552	8.921903E-5	11.152379
0.769691	0.000132	16.547625
0.781769	0.000182	22.786275
0.793914	0.000240	30.042738
0.806024	0.000306	38.295888
0.818168	0.000381	47.588125
0.830251	0.000463	57.825763
0.842355	0.000553	69.084925
0.854503	0.000650	81.271613
0.866621	0.000755	94.315562
0.878760	0.000866	108.208925
0.890842	0.000981	122.608200
0.903016	0.001104	137.970875
0.915126	0.001230	153.719750
0.927201	0.001362	170.188500
0.939391	0.001497	187.078875
0.951468	0.001633	204.153500
0.963611	0.001775	221.904125
0.975727	0.001921	240.146250
0.987871	0.002067	258.405375
0.999954	0.002215	276.915875
