Voltage (V)	Current (A)	Current Density (A/m^2)	 Dividing Wavelength (nm) = 480  Light Power Density (W/m^2) = 1017.183426  Total Light Power Density (W/m^2) = 1017.183426	
-0.199980	-0.000255	-31.899000
-0.182588	-0.000247	-30.859462
-0.165205	-0.000242	-30.204025
-0.147852	-0.000238	-29.743475
-0.130431	-0.000234	-29.280038
-0.113043	-0.000229	-28.654788
-0.095628	-0.000225	-28.166025
-0.078241	-0.000222	-27.694650
-0.060823	-0.000218	-27.257588
-0.043497	-0.000216	-27.050150
-0.026081	-0.000212	-26.504675
-0.008692	-0.000210	-26.271800
0.008678	-0.000205	-25.624963
0.026103	-0.000203	-25.424563
0.043488	-0.000200	-24.940663
0.060847	-0.000196	-24.451125
0.078235	-0.000190	-23.755200
0.095657	-0.000185	-23.078000
0.113043	-0.000179	-22.383625
0.130432	-0.000170	-21.272425
0.147854	-0.000163	-20.336125
0.165208	-0.000152	-18.958575
0.182594	-0.000137	-17.150800
0.199988	-0.000122	-15.209000
0.217403	-0.000102	-12.761300
0.234807	-7.922687E-5	-9.903359
0.252154	-5.229804E-5	-6.537255
0.269533	-2.034339E-5	-2.542924
0.286938	1.808788E-5	2.260985
0.304317	6.335452E-5	7.919315
0.321718	0.000117	14.594075
0.339144	0.000179	22.410175
0.356494	0.000252	31.451525
0.373880	0.000334	41.705350
0.391264	0.000430	53.695550
0.408681	0.000538	67.299663
0.426065	0.000661	82.631125
0.443485	0.000799	99.925913
0.460802	0.000952	119.024963
0.478249	0.001127	140.822375
0.495635	0.001315	164.332875
0.513054	0.001522	190.270000
0.530438	0.001750	218.792875
0.547823	0.001997	249.577375
0.565177	0.002263	282.828375
0.582565	0.002549	318.655625
0.599989	0.002856	356.983250
0.617372	0.003183	397.909250
0.634793	0.003531	441.363250
0.652111	0.003895	486.880125
0.669529	0.004282	535.223875
0.686914	0.004687	585.893500
0.704338	0.005112	639.041375
0.721716	0.005553	694.185250
0.739105	0.006014	751.802500
0.756455	0.006492	811.441000
0.773873	0.006987	873.423125
0.791261	0.007499	937.365125
0.808641	0.008027	1003.376375
0.826063	0.008571	1071.416250
0.843449	0.009131	1141.356250
0.860801	0.009703	1212.903125
0.878188	0.010291	1286.346250
0.895631	0.010900	1362.520000
0.913022	0.011515	1439.405000
0.930406	0.012143	1517.870000
0.947829	0.012786	1598.200000
0.965183	0.013438	1679.727500
0.982574	0.014104	1762.987500
0.999955	0.014781	1847.573750
