Voltage (V)	Current (A)	Current Density (A/m^2)	 Dividing Wavelength (nm) = 420  Light Power Density (W/m^2) = 1094.384842  Total Light Power Density (W/m^2) = 1094.384842	
-0.199864	-1.427840E-5	-1.784800
-0.189781	-1.407969E-5	-1.759961
-0.179733	-1.389633E-5	-1.737041
-0.169618	-1.361197E-5	-1.701496
-0.159510	-1.339196E-5	-1.673995
-0.149459	-1.315927E-5	-1.644909
-0.139349	-1.299739E-5	-1.624674
-0.129273	-1.283997E-5	-1.604996
-0.119226	-1.261108E-5	-1.576385
-0.109116	-1.237935E-5	-1.547419
-0.099001	-1.224890E-5	-1.531113
-0.088961	-1.206604E-5	-1.508255
-0.078855	-1.188835E-5	-1.486044
-0.068778	-1.172279E-5	-1.465349
-0.058659	-1.154906E-5	-1.443633
-0.048609	-1.141210E-5	-1.426513
-0.038500	-1.121115E-5	-1.401394
-0.028399	-1.099919E-5	-1.374899
-0.018352	-1.086213E-5	-1.357766
-0.008271	-1.069189E-5	-1.336486
0.001811	-1.055681E-5	-1.319601
0.011856	-1.037893E-5	-1.297366
0.021929	-1.016945E-5	-1.271181
0.032039	-1.001416E-5	-1.251770
0.042083	-9.784107E-6	-1.223013
0.052201	-9.683726E-6	-1.210466
0.062283	-9.459245E-6	-1.182406
0.072354	-9.239081E-6	-1.154885
0.082437	-9.109169E-6	-1.138646
0.092552	-8.988939E-6	-1.123617
0.102598	-8.803403E-6	-1.100425
0.112712	-8.595844E-6	-1.074481
0.122793	-8.463800E-6	-1.057975
0.132832	-8.223994E-6	-1.027999
0.142948	-8.029250E-6	-1.003656
0.153057	-7.851343E-6	-0.981418
0.163143	-7.644235E-6	-0.955529
0.173189	-7.331175E-6	-0.916397
0.183303	-7.275338E-6	-0.909417
0.193413	-7.035264E-6	-0.879408
0.203465	-6.703575E-6	-0.837947
0.213542	-6.570740E-6	-0.821342
0.223653	-6.271219E-6	-0.783902
0.233703	-6.161264E-6	-0.770158
0.243812	-5.944093E-6	-0.743012
0.253887	-5.722277E-6	-0.715285
0.263966	-5.482274E-6	-0.685284
0.274052	-5.163072E-6	-0.645384
0.284158	-4.943909E-6	-0.617989
0.294209	-4.551730E-6	-0.568966
0.304318	-4.318982E-6	-0.539873
0.314397	-3.880170E-6	-0.485021
0.324449	-3.722310E-6	-0.465289
0.334559	-3.377784E-6	-0.422223
0.344669	-2.948226E-6	-0.368528
0.354715	-2.552507E-6	-0.319063
0.364793	-2.085750E-6	-0.260719
0.374912	-1.643675E-6	-0.205459
0.384956	-1.153654E-6	-0.144207
0.395063	-6.123782E-7	-0.076547
0.405424	-8.717617E-8	-0.010897
0.415223	5.757597E-7	0.071970
0.425287	1.173411E-6	0.146676
0.435405	1.900508E-6	0.237564
0.445484	2.764904E-6	0.345613
0.455560	3.748027E-6	0.468503
0.465639	4.614244E-6	0.576781
0.475755	5.861661E-6	0.732708
0.485786	6.986475E-6	0.873309
0.495908	8.261060E-6	1.032633
0.505983	9.763671E-6	1.220459
0.516039	1.137686E-5	1.422108
0.526147	1.308694E-5	1.635868
0.536257	1.508979E-5	1.886224
0.546308	1.725122E-5	2.156402
0.556381	1.969879E-5	2.462349
0.566498	2.231062E-5	2.788828
0.576539	2.526314E-5	3.157893
0.586644	2.858887E-5	3.573609
0.596726	3.235308E-5	4.044135
0.606814	3.629386E-5	4.536733
0.616892	4.088843E-5	5.111054
0.627002	4.592838E-5	5.741047
0.637041	5.164924E-5	6.456155
0.647154	5.797693E-5	7.247116
0.657235	6.519290E-5	8.149113
0.667346	7.325109E-5	9.156386
0.677382	8.237518E-5	10.296898
0.687492	9.286552E-5	11.608190
0.697582	0.000104	13.062413
0.707632	0.000118	14.790000
0.717744	0.000134	16.741800
0.727858	0.000152	18.992050
0.737904	0.000172	21.519825
0.747979	0.000195	24.418138
0.758098	0.000222	27.718950
0.768146	0.000251	31.377038
0.778256	0.000284	35.488788
0.788363	0.000320	40.051375
0.798420	0.000360	44.982363
0.808480	0.000403	50.354788
0.818595	0.000449	56.175963
0.828639	0.000499	62.338700
0.838755	0.000551	68.918013
0.848826	0.000607	75.831950
0.858862	0.000665	83.071938
0.868986	0.000726	90.695875
0.879102	0.000788	98.537938
0.889179	0.000854	106.689575
0.899212	0.000920	115.062225
0.909330	0.000989	123.651038
0.919458	0.001061	132.615500
0.929503	0.001133	141.562875
0.939619	0.001207	150.842375
0.949702	0.001282	160.260875
0.959750	0.001359	169.832375
0.969858	0.001438	179.695875
0.979969	0.001518	189.704625
0.990015	0.001598	199.752625
1.000099	0.001680	209.997375
