Voltage (V)	Current (A)	Current Density (A/m^2)	 Dividing Wavelength (nm) = 600  Light Power Density (W/m^2) = 1094.384842  Total Light Power Density (W/m^2) = 1094.384842	
-0.199888	-0.000603	-75.389388
-0.189811	-0.000601	-75.150750
-0.179766	-0.000596	-74.437950
-0.169647	-0.000599	-74.931350
-0.159537	-0.000602	-75.306313
-0.149490	-0.000596	-74.471113
-0.139378	-0.000597	-74.668413
-0.129306	-0.000596	-74.450963
-0.119251	-0.000592	-74.059238
-0.109144	-0.000593	-74.119088
-0.099032	-0.000592	-73.970438
-0.088994	-0.000590	-73.803763
-0.078881	-0.000588	-73.450238
-0.068808	-0.000591	-73.912937
-0.058688	-0.000591	-73.934300
-0.048638	-0.000590	-73.763913
-0.038525	-0.000586	-73.275175
-0.028421	-0.000587	-73.352550
-0.018372	-0.000585	-73.168725
-0.008295	-0.000583	-72.920625
0.001786	-0.000584	-72.947063
0.011828	-0.000582	-72.722737
0.021910	-0.000578	-72.265650
0.032021	-0.000580	-72.482875
0.042064	-0.000581	-72.669475
0.052180	-0.000578	-72.203850
0.062266	-0.000579	-72.406538
0.072341	-0.000572	-71.532063
0.082417	-0.000575	-71.896713
0.092531	-0.000571	-71.377337
0.102581	-0.000576	-72.004362
0.112696	-0.000572	-71.462187
0.122772	-0.000571	-71.355213
0.132813	-0.000564	-70.499238
0.142926	-0.000561	-70.132225
0.153040	-0.000564	-70.484088
0.163125	-0.000558	-69.773850
0.173169	-0.000561	-70.129212
0.183281	-0.000562	-70.288138
0.193395	-0.000556	-69.488637
0.203443	-0.000556	-69.478150
0.213525	-0.000552	-68.942125
0.223639	-0.000552	-68.979838
0.233686	-0.000548	-68.451500
0.243790	-0.000547	-68.333525
0.253868	-0.000545	-68.154912
0.263950	-0.000542	-67.748163
0.274031	-0.000536	-66.959288
0.284142	-0.000538	-67.307362
0.294189	-0.000534	-66.778825
0.304294	-0.000531	-66.356500
0.314374	-0.000529	-66.150413
0.324427	-0.000524	-65.537713
0.334539	-0.000528	-65.960925
0.344652	-0.000520	-65.003438
0.354693	-0.000513	-64.140188
0.364777	-0.000511	-63.897325
0.374889	-0.000511	-63.843738
0.384936	-0.000505	-63.077613
0.395049	-0.000496	-62.059175
0.405129	-0.000491	-61.363838
0.415233	-0.000490	-61.292325
0.425284	-0.000485	-60.566688
0.435399	-0.000476	-59.559600
0.445479	-0.000469	-58.648475
0.455555	-0.000463	-57.925488
0.465633	-0.000452	-56.517488
0.475752	-0.000441	-55.144713
0.485797	-0.000432	-53.975062
0.495915	-0.000419	-52.353838
0.505993	-0.000406	-50.750763
0.516038	-0.000398	-49.788300
0.526149	-0.000379	-47.376562
0.536258	-0.000366	-45.704113
0.546306	-0.000349	-43.618538
0.556382	-0.000331	-41.370388
0.566499	-0.000312	-38.982863
0.576538	-0.000292	-36.547575
0.586650	-0.000269	-33.667325
0.596731	-0.000244	-30.511213
0.606821	-0.000217	-27.091988
0.616901	-0.000191	-23.842838
0.627010	-0.000162	-20.270675
0.637047	-0.000132	-16.550912
0.647200	-9.950755E-5	-12.438444
0.657244	-6.605525E-5	-8.256906
0.667349	-2.761243E-5	-3.451554
0.677391	1.192151E-5	1.490189
0.687494	5.385942E-5	6.732428
0.697539	0.000100	12.515975
0.707615	0.000147	18.428450
0.717734	0.000202	25.286950
0.727846	0.000260	32.544563
0.737892	0.000324	40.502150
0.747975	0.000395	49.368063
0.758089	0.000473	59.143075
0.768137	0.000560	70.006313
0.778242	0.000657	82.184675
0.788358	0.000766	95.704725
0.798406	0.000886	110.782213
0.808469	0.001020	127.465250
0.818626	0.001168	145.996625
0.828681	0.001330	166.221000
0.838789	0.001509	188.577625
0.848870	0.001702	212.711875
0.858911	0.001908	238.462250
0.869037	0.002132	266.514625
0.879157	0.002369	296.086125
0.889234	0.002621	327.571875
0.899278	0.002884	360.457875
0.909396	0.003160	395.002625
0.919495	0.003447	430.887125
0.929544	0.003746	468.188375
0.939659	0.004056	507.052250
0.949736	0.004375	546.823250
0.959782	0.004702	587.746875
0.969883	0.005040	629.945125
0.979999	0.005384	672.949250
0.990046	0.005735	716.890125
1.000121	0.006094	761.742500
