Voltage (V)	Current (A)	Current Density (A/m^2)	 Dividing Wavelength (nm) = 530  Light Power Density (W/m^2) = 1094.384842  Total Light Power Density (W/m^2) = 1094.384842	
-0.199913	-0.000382	-47.737100
-0.189825	-0.000384	-47.948113
-0.179783	-0.000382	-47.765938
-0.169668	-0.000379	-47.329088
-0.159554	-0.000380	-47.518063
-0.149507	-0.000381	-47.678075
-0.139394	-0.000375	-46.914812
-0.129318	-0.000381	-47.572788
-0.119268	-0.000379	-47.411600
-0.109155	-0.000375	-46.935213
-0.099047	-0.000380	-47.513275
-0.089003	-0.000377	-47.175875
-0.078900	-0.000376	-46.957350
-0.068816	-0.000378	-47.216238
-0.058701	-0.000376	-46.966513
-0.048651	-0.000372	-46.444437
-0.038541	-0.000375	-46.831063
-0.028441	-0.000374	-46.707412
-0.018391	-0.000375	-46.846088
-0.008305	-0.000373	-46.596950
0.001771	-0.000370	-46.307162
0.011817	-0.000369	-46.168375
0.021898	-0.000368	-46.040625
0.032005	-0.000366	-45.699463
0.042052	-0.000369	-46.176212
0.052169	-0.000367	-45.833100
0.062253	-0.000367	-45.907188
0.072322	-0.000366	-45.764525
0.082404	-0.000363	-45.320350
0.092518	-0.000363	-45.409963
0.102562	-0.000365	-45.640925
0.112679	-0.000365	-45.600688
0.122759	-0.000362	-45.234012
0.132805	-0.000364	-45.460638
0.142912	-0.000358	-44.720512
0.153027	-0.000360	-45.040338
0.163110	-0.000358	-44.719625
0.173155	-0.000359	-44.843588
0.183269	-0.000358	-44.805200
0.193378	-0.000355	-44.348538
0.203429	-0.000355	-44.369825
0.213506	-0.000353	-44.155075
0.223620	-0.000354	-44.278337
0.233665	-0.000351	-43.910363
0.243771	-0.000353	-44.075888
0.253850	-0.000351	-43.861363
0.263929	-0.000349	-43.593238
0.274011	-0.000346	-43.193050
0.284125	-0.000344	-43.016325
0.294167	-0.000344	-43.023925
0.304278	-0.000344	-43.034087
0.314357	-0.000341	-42.591225
0.324409	-0.000339	-42.362213
0.334523	-0.000338	-42.236312
0.344635	-0.000337	-42.077188
0.354676	-0.000331	-41.431988
0.364754	-0.000330	-41.301887
0.374873	-0.000325	-40.602163
0.384918	-0.000326	-40.714500
0.395030	-0.000319	-39.917713
0.405111	-0.000319	-39.904938
0.415216	-0.000318	-39.751738
0.425260	-0.000310	-38.795875
0.435382	-0.000306	-38.221750
0.445459	-0.000302	-37.700288
0.455540	-0.000297	-37.140387
0.465619	-0.000288	-35.972988
0.475732	-0.000284	-35.525975
0.485776	-0.000275	-34.364438
0.495895	-0.000269	-33.614688
0.505977	-0.000261	-32.603338
0.516018	-0.000252	-31.494175
0.526131	-0.000242	-30.202825
0.536238	-0.000229	-28.610913
0.546289	-0.000218	-27.223850
0.556364	-0.000206	-25.796688
0.566480	-0.000190	-23.793013
0.576519	-0.000177	-22.103513
0.586626	-0.000162	-20.220100
0.596713	-0.000143	-17.835963
0.606797	-0.000125	-15.653175
0.616884	-0.000104	-12.956850
0.626991	-8.498707E-5	-10.623384
0.637039	-6.178465E-5	-7.723081
0.647142	-3.801623E-5	-4.752029
0.657228	-1.403752E-5	-1.754690
0.667326	1.409004E-5	1.761255
0.677368	4.159564E-5	5.199455
0.687465	7.346209E-5	9.182761
0.697553	0.000105	13.152263
0.707603	0.000142	17.693575
0.717719	0.000181	22.665013
0.727832	0.000226	28.200050
0.737882	0.000274	34.220762
0.747960	0.000329	41.062513
0.758068	0.000390	48.767325
0.768111	0.000459	57.431475
0.778228	0.000538	67.295888
0.788342	0.000628	78.493000
0.798393	0.000728	91.058575
0.808456	0.000841	105.184100
0.818563	0.000968	121.027050
0.828657	0.001108	138.543750
0.838765	0.001265	158.096375
0.848850	0.001432	179.049875
0.858893	0.001616	202.031750
0.869007	0.001813	226.624125
0.879130	0.002023	252.909750
0.889213	0.002250	281.225375
0.899254	0.002483	310.321750
0.909371	0.002730	341.249125
0.919474	0.002990	373.691500
0.929518	0.003257	407.169125
0.939636	0.003533	441.673125
0.949713	0.003821	477.579125
0.959762	0.004115	514.398125
0.969857	0.004419	552.363875
0.979978	0.004731	591.339875
0.990018	0.005045	630.568375
1.000105	0.005367	670.853750
