Voltage (V)	Current (A)	Current Density (A/m^2)	 Dividing Wavelength (nm) = 450  Light Power Density (W/m^2) = 1094.384842  Total Light Power Density (W/m^2) = 1094.384842	
-0.199917	-6.508215E-5	-8.135269
-0.189837	-6.528615E-5	-8.160769
-0.179789	-6.508970E-5	-8.136212
-0.169674	-6.569782E-5	-8.212227
-0.159565	-6.522582E-5	-8.153227
-0.149516	-6.543047E-5	-8.178809
-0.139406	-6.502919E-5	-8.128649
-0.129334	-6.533530E-5	-8.166913
-0.119282	-6.503928E-5	-8.129910
-0.109168	-6.490097E-5	-8.112621
-0.099058	-6.453242E-5	-8.066553
-0.089020	-6.464028E-5	-8.080035
-0.078906	-6.455647E-5	-8.069559
-0.068823	-6.472413E-5	-8.090516
-0.058709	-6.431526E-5	-8.039408
-0.048665	-6.449520E-5	-8.061900
-0.038548	-6.465923E-5	-8.082404
-0.028443	-6.471303E-5	-8.089129
-0.018403	-6.406527E-5	-8.008159
-0.008320	-6.421909E-5	-8.027386
0.001770	-6.419455E-5	-8.024319
0.011809	-6.403527E-5	-8.004409
0.021888	-6.435768E-5	-8.044710
0.032006	-6.366581E-5	-7.958226
0.042045	-6.400715E-5	-8.000894
0.052168	-6.401201E-5	-8.001501
0.062246	-6.316248E-5	-7.895310
0.072318	-6.376643E-5	-7.970804
0.082400	-6.325620E-5	-7.907025
0.092514	-6.333436E-5	-7.916795
0.102559	-6.334563E-5	-7.918204
0.112671	-6.295998E-5	-7.869998
0.122757	-6.255103E-5	-7.818879
0.132799	-6.300053E-5	-7.875066
0.142909	-6.329978E-5	-7.912473
0.153021	-6.267597E-5	-7.834496
0.163107	-6.270089E-5	-7.837611
0.173154	-6.255789E-5	-7.819736
0.183267	-6.284028E-5	-7.855035
0.193374	-6.253483E-5	-7.816854
0.203424	-6.247176E-5	-7.808970
0.213504	-6.188128E-5	-7.735160
0.223623	-6.199083E-5	-7.748854
0.233667	-6.147922E-5	-7.684903
0.243771	-6.204018E-5	-7.755022
0.253846	-6.115375E-5	-7.644219
0.263929	-6.094492E-5	-7.618115
0.274007	-6.112744E-5	-7.640930
0.284124	-6.072077E-5	-7.590096
0.294166	-6.089656E-5	-7.612070
0.304272	-5.972081E-5	-7.465101
0.314353	-6.030780E-5	-7.538475
0.324408	-5.992730E-5	-7.490913
0.334518	-5.955853E-5	-7.444816
0.344627	-5.940726E-5	-7.425908
0.354675	-5.876461E-5	-7.345576
0.364754	-5.851654E-5	-7.314567
0.374865	-5.810713E-5	-7.263391
0.384913	-5.734585E-5	-7.168231
0.395021	-5.718431E-5	-7.148039
0.405107	-5.579802E-5	-6.974753
0.415214	-5.484621E-5	-6.855776
0.425254	-5.430176E-5	-6.787720
0.435376	-5.360980E-5	-6.701225
0.445451	-5.227501E-5	-6.534376
0.455533	-5.144377E-5	-6.430471
0.465607	-4.945704E-5	-6.182130
0.475724	-4.761129E-5	-5.951411
0.485761	-4.639604E-5	-5.799505
0.495885	-4.418266E-5	-5.522832
0.505963	-4.200361E-5	-5.250451
0.516008	-3.959207E-5	-4.949009
0.526119	-3.629455E-5	-4.536819
0.536227	-3.270210E-5	-4.087763
0.546275	-2.945425E-5	-3.681781
0.556353	-2.545338E-5	-3.181673
0.566465	-2.086235E-5	-2.607794
0.576511	-1.609877E-5	-2.012346
0.586619	-1.065261E-5	-1.331576
0.596709	-4.977840E-6	-0.622230
0.606781	1.391654E-6	0.173957
0.616838	8.306501E-6	1.038313
0.626953	1.627512E-5	2.034390
0.637001	2.438036E-5	3.047545
0.647109	3.354007E-5	4.192509
0.657193	4.344085E-5	5.430106
0.667304	5.481174E-5	6.851468
0.677345	6.721239E-5	8.401549
0.687454	8.132924E-5	10.166155
0.697532	9.736959E-5	12.171199
0.707592	0.000116	14.465550
0.717708	0.000137	17.167075
0.727830	0.000163	20.318650
0.737877	0.000192	24.053175
0.747956	0.000228	28.439138
0.758064	0.000270	33.775038
0.768117	0.000320	40.042338
0.778227	0.000380	47.527150
0.788339	0.000451	56.363450
0.798398	0.000533	66.656638
0.808460	0.000628	78.548313
0.818575	0.000738	92.220088
0.828620	0.000862	107.716263
0.838727	0.001001	125.186250
0.848840	0.001155	144.395375
0.858890	0.001323	165.325000
0.868997	0.001505	188.179625
0.879131	0.001702	212.770000
0.889211	0.001912	238.952625
0.899247	0.002132	266.437750
0.909367	0.002364	295.538750
0.919475	0.002608	326.012875
0.929519	0.002860	357.476250
0.939638	0.003122	390.303750
0.949714	0.003393	424.173875
0.959757	0.003671	458.931000
0.969871	0.003958	494.768125
0.979974	0.004253	531.623750
0.990019	0.004552	569.025375
1.000102	0.004858	607.263125
