Voltage (V)	Current (A)	Current Density (A/m^2)	 Dividing Wavelength (nm) = 710  Light Power Density (W/m^2) = 1088.273430  Total Light Power Density (W/m^2) = 1088.273430	
-0.199856	-0.000439	-54.935588
-0.189772	-0.000436	-54.546138
-0.179728	-0.000438	-54.789050
-0.169625	-0.000439	-54.837263
-0.159504	-0.000433	-54.187213
-0.149453	-0.000430	-53.754600
-0.139350	-0.000430	-53.796588
-0.129265	-0.000431	-53.881375
-0.119215	-0.000430	-53.719588
-0.109110	-0.000426	-53.298350
-0.098999	-0.000425	-53.175325
-0.088958	-0.000426	-53.287750
-0.078845	-0.000423	-52.881225
-0.068772	-0.000424	-52.964600
-0.058643	-0.000420	-52.518413
-0.048602	-0.000420	-52.549413
-0.038493	-0.000423	-52.873688
-0.028383	-0.000419	-52.366613
-0.018343	-0.000417	-52.073638
-0.008262	-0.000415	-51.859200
0.001813	-0.000416	-51.958000
0.011856	-0.000416	-52.018188
0.021935	-0.000411	-51.327863
0.032049	-0.000409	-51.113600
0.042091	-0.000411	-51.315175
0.052211	-0.000409	-51.144250
0.062301	-0.000407	-50.929763
0.072367	-0.000404	-50.556625
0.082445	-0.000403	-50.412725
0.092563	-0.000401	-50.159938
0.102603	-0.000401	-50.098888
0.112722	-0.000399	-49.875188
0.122800	-0.000397	-49.581975
0.132842	-0.000395	-49.435875
0.142955	-0.000394	-49.208525
0.153071	-0.000394	-49.302275
0.163159	-0.000390	-48.737075
0.173192	-0.000392	-49.019463
0.183307	-0.000389	-48.575525
0.193421	-0.000387	-48.374750
0.203469	-0.000384	-48.031987
0.213545	-0.000383	-47.894750
0.223660	-0.000382	-47.693850
0.233704	-0.000380	-47.448262
0.243818	-0.000378	-47.220963
0.253890	-0.000375	-46.895963
0.263971	-0.000372	-46.439438
0.274054	-0.000371	-46.436863
0.284168	-0.000369	-46.123188
0.294214	-0.000364	-45.495663
0.304318	-0.000363	-45.372675
0.314399	-0.000360	-44.949613
0.324451	-0.000356	-44.473200
0.334564	-0.000352	-44.044425
0.344669	-0.000348	-43.549150
0.354720	-0.000345	-43.125675
0.364797	-0.000338	-42.243288
0.374915	-0.000337	-42.155650
0.384959	-0.000332	-41.515750
0.395071	-0.000327	-40.835763
0.405152	-0.000319	-39.830362
0.415254	-0.000315	-39.344887
0.425305	-0.000308	-38.448150
0.435423	-0.000299	-37.316200
0.445501	-0.000291	-36.392763
0.455575	-0.000282	-35.293250
0.465655	-0.000271	-33.892838
0.475770	-0.000263	-32.930875
0.485814	-0.000249	-31.156450
0.495933	-0.000236	-29.510425
0.506006	-0.000221	-27.567387
0.516048	-0.000204	-25.545462
0.526158	-0.000186	-23.219800
0.536270	-0.000166	-20.727287
0.546329	-0.000145	-18.080175
0.556400	-0.000122	-15.195750
0.566505	-9.333750E-5	-11.667188
0.576535	-6.467562E-5	-8.084453
0.586651	-3.125930E-5	-3.907413
0.596730	5.183095E-6	0.647887
0.606796	4.844581E-5	6.055726
0.616870	9.393182E-5	11.741478
0.626992	0.000145	18.186825
0.637047	0.000200	24.963000
0.647155	0.000265	33.145338
0.657239	0.000337	42.117100
0.667345	0.000415	51.830813
0.677385	0.000500	62.499638
0.687495	0.000595	74.335425
0.697581	0.000698	87.290688
0.707627	0.000815	101.828988
0.717732	0.000941	117.586625
0.727887	0.001078	134.793250
0.737947	0.001230	153.800500
0.748022	0.001394	174.220125
0.758136	0.001572	196.491125
0.768183	0.001762	220.276375
0.778302	0.001969	246.178375
0.788412	0.002191	273.929250
0.798477	0.002427	303.355875
0.808532	0.002677	334.679625
0.818649	0.002944	368.022625
0.828700	0.003224	402.939000
0.838814	0.003519	439.920625
0.848892	0.003828	478.483125
0.858931	0.004149	518.617750
0.869042	0.004486	560.735250
0.879162	0.004835	604.395625
0.889234	0.005196	649.505375
0.899285	0.005566	695.809625
0.909392	0.005951	743.901000
0.919500	0.006346	793.209375
0.929546	0.006748	843.478375
0.939656	0.007162	895.312000
0.949736	0.007584	948.003625
0.959785	0.008013	1001.629000
0.969887	0.008453	1056.622250
0.980009	0.008900	1112.517875
0.990059	0.009351	1168.879625
1.000127	0.009812	1226.453625
