Voltage (V)	Current (A)	Current Density (A/m^2)	 Dividing Wavelength (nm) = 720  Light Power Density (W/m^2) = 1053.797256  Total Light Power Density (W/m^2) = 1053.797256	
-0.199979	-3.152258E-5	-3.940323
-0.187897	-3.095775E-5	-3.869719
-0.175742	-3.210020E-5	-4.012525
-0.163634	-3.116925E-5	-3.896156
-0.151482	-3.068419E-5	-3.835524
-0.139371	-3.124848E-5	-3.906060
-0.127221	-3.084456E-5	-3.855570
-0.115140	-3.071543E-5	-3.839429
-0.103031	-3.150145E-5	-3.937681
-0.090882	-3.063026E-5	-3.828783
-0.078775	-3.034586E-5	-3.793233
-0.066625	-3.055066E-5	-3.818833
-0.054546	-2.982820E-5	-3.728525
-0.042395	-3.066082E-5	-3.832602
-0.030278	-2.937441E-5	-3.671801
-0.018172	-3.003360E-5	-3.754200
-0.006016	-2.922846E-5	-3.653558
0.006041	-2.945534E-5	-3.681917
0.018194	-2.985722E-5	-3.732153
0.030308	-2.980426E-5	-3.725532
0.042389	-2.944154E-5	-3.680192
0.054542	-2.933825E-5	-3.667281
0.066657	-2.839982E-5	-3.549978
0.078805	-2.803209E-5	-3.504011
0.090885	-2.805589E-5	-3.506986
0.103038	-2.779942E-5	-3.474928
0.115143	-2.850536E-5	-3.563170
0.127263	-2.825845E-5	-3.532306
0.139414	-2.838795E-5	-3.548494
0.151490	-2.822657E-5	-3.528321
0.163647	-2.710893E-5	-3.388616
0.175752	-2.758033E-5	-3.447541
0.187910	-2.776408E-5	-3.470510
0.199991	-2.759500E-5	-3.449375
0.212100	-2.748724E-5	-3.435905
0.224248	-2.629615E-5	-3.287019
0.236363	-2.635869E-5	-3.294836
0.248513	-2.707346E-5	-3.384183
0.260590	-2.738891E-5	-3.423614
0.272739	-2.599094E-5	-3.248868
0.284855	-2.625161E-5	-3.281451
0.296937	-2.528036E-5	-3.160045
0.309084	-2.554453E-5	-3.193066
0.321195	-2.521460E-5	-3.151825
0.333352	-2.515011E-5	-3.143764
0.345468	-2.488687E-5	-3.110859
0.357611	-2.447343E-5	-3.059179
0.369696	-2.401107E-5	-3.001384
0.381805	-2.397518E-5	-2.996898
0.393954	-2.379097E-5	-2.973871
0.406035	-2.278137E-5	-2.847671
0.418185	-2.339826E-5	-2.924783
0.430300	-2.232658E-5	-2.790822
0.442409	-2.230408E-5	-2.788010
0.454561	-2.172067E-5	-2.715084
0.466640	-2.174316E-5	-2.717895
0.478792	-2.121971E-5	-2.652464
0.490902	-2.166695E-5	-2.708369
0.503052	-2.022926E-5	-2.528658
0.515131	-2.091420E-5	-2.614275
0.527245	-1.986376E-5	-2.482970
0.539396	-1.928136E-5	-2.410170
0.551503	-1.886262E-5	-2.357827
0.563658	-1.897007E-5	-2.371259
0.575738	-1.786987E-5	-2.233734
0.587879	-1.741563E-5	-2.176954
0.600004	-1.628725E-5	-2.035906
0.612079	-1.571066E-5	-1.963832
0.624233	-1.394194E-5	-1.742743
0.636339	-1.372508E-5	-1.715635
0.648487	-1.247251E-5	-1.559064
0.660608	-1.060074E-5	-1.325093
0.672766	-8.459695E-6	-1.057462
0.684837	-6.568352E-6	-0.821044
0.696957	-3.276214E-6	-0.409527
0.709065	-3.583390E-7	-0.044792
0.721168	3.807763E-6	0.475970
0.733326	8.739614E-6	1.092452
0.745430	1.439295E-5	1.799119
0.757571	2.153116E-5	2.691395
0.769686	2.986036E-5	3.732545
0.781762	3.970648E-5	4.963310
0.793907	5.122706E-5	6.403383
0.806015	6.491761E-5	8.114701
0.818155	8.075927E-5	10.094909
0.830237	9.896125E-5	12.370156
0.842367	0.000120	14.998138
0.854519	0.000144	17.944800
0.866638	0.000171	21.316425
0.878779	0.000200	25.037375
0.890863	0.000234	29.218800
0.903011	0.000271	33.819187
0.915121	0.000311	38.859212
0.927195	0.000354	44.234813
0.939384	0.000401	50.063575
0.951459	0.000453	56.575763
0.963602	0.000507	63.391850
0.975718	0.000565	70.606538
0.987859	0.000628	78.527263
0.999941	0.000692	86.537225
