Wavelength (nm)	EQE (%)	Current (A)	Dark Current (A) -> 	-9.960063000E-9	
400.000000	13.183493	-2.788446E-7
403.000000	12.972018	-6.235737E-7
406.000000	12.490398	-9.757581E-7
409.000000	13.378240	-1.471270E-6
412.000000	13.336369	-2.246622E-6
415.000000	12.202940	-9.816779E-7
418.000000	13.976479	-9.749725E-7
421.000000	13.212894	-1.083695E-6
424.000000	13.202643	-9.790233E-7
427.000000	13.319047	-1.290652E-6
430.000000	13.370228	-2.066910E-6
433.000000	12.849887	-1.861580E-6
436.000000	12.878853	-1.849679E-6
439.000000	12.808359	-2.018100E-6
442.000000	13.004976	-2.151734E-6
445.000000	12.804403	-2.407065E-6
448.000000	12.439100	-2.654719E-6
451.000000	11.564621	-2.174741E-6
454.000000	12.467167	-2.158228E-6
457.000000	12.014413	-2.322029E-6
460.000000	12.605955	-1.791483E-6
463.000000	11.780128	-2.878487E-6
466.000000	12.972597	-2.496612E-6
469.000000	12.843211	-2.274530E-6
472.000000	12.958780	-2.123470E-6
475.000000	12.492227	-1.941514E-6
478.000000	12.587846	-2.511338E-6
481.000000	13.774906	-2.288372E-6
484.000000	13.448831	-2.154607E-6
487.000000	13.278481	-2.938111E-6
490.000000	13.814290	-2.515761E-6
493.000000	13.279267	-2.458816E-6
496.000000	13.340807	-2.971997E-6
499.000000	13.855887	-3.076333E-6
502.000000	14.206342	-2.865368E-6
505.000000	14.119039	-3.467946E-6
508.000000	14.000556	-4.438203E-6
511.000000	13.822237	-5.037346E-6
514.000000	13.802545	-3.223731E-6
517.000000	14.596210	-3.357957E-6
520.000000	14.174847	-5.612158E-6
523.000000	13.729997	-4.952216E-6
526.000000	14.620305	-3.128476E-6
529.000000	15.092421	-4.274976E-6
532.000000	14.275889	-4.393985E-6
535.000000	13.821547	-1.980516E-6
538.000000	15.274347	-3.823947E-6
541.000000	14.806023	-4.972814E-6
544.000000	14.651110	-2.231569E-6
547.000000	15.106735	-4.279585E-6
550.000000	14.496291	-3.716694E-6
553.000000	15.188980	-2.811743E-6
556.000000	15.244919	-3.828296E-6
559.000000	14.937967	-2.599310E-6
562.000000	15.256642	-3.401040E-6
565.000000	15.265767	-3.188077E-6
568.000000	15.311767	-3.155437E-6
571.000000	14.723387	-3.605656E-6
574.000000	15.126656	-3.423381E-6
577.000000	14.932043	-5.029558E-6
580.000000	14.497166	-3.470304E-6
583.000000	15.162523	-3.849612E-6
586.000000	14.718719	-4.851008E-6
589.000000	14.785318	-3.358930E-6
592.000000	14.006501	-1.830607E-6
595.000000	13.541263	-2.115931E-6
598.000000	13.676723	-1.696900E-6
601.000000	13.794746	-2.339186E-6
604.000000	13.837639	-2.429342E-6
607.000000	13.933487	-2.622365E-6
610.000000	14.413810	-2.767664E-6
613.000000	14.449790	-4.725946E-6
616.000000	13.736595	-5.699021E-6
619.000000	13.940846	-3.320794E-6
622.000000	15.026568	-7.110340E-6
625.000000	13.445741	-7.640991E-6
628.000000	13.717335	-4.044970E-6
631.000000	14.585175	-5.196157E-6
634.000000	14.067016	-6.124687E-6
637.000000	13.959233	-7.794353E-6
640.000000	13.720370	-7.561011E-6
643.000000	14.034612	-7.352917E-6
646.000000	14.054519	-8.780325E-6
649.000000	14.184985	-8.596116E-6
652.000000	14.154678	-1.073337E-5
655.000000	13.932971	-9.714852E-6
658.000000	14.162732	-1.068984E-5
661.000000	13.679473	-1.237545E-5
664.000000	13.752919	-1.099899E-5
667.000000	14.136126	-1.275523E-5
670.000000	13.961900	-1.263638E-5
673.000000	14.054833	-1.329177E-5
676.000000	14.112173	-1.411982E-5
679.000000	14.230776	-1.415323E-5
682.000000	14.534776	-1.471488E-5
685.000000	14.730810	-1.579595E-5
688.000000	14.858047	-1.582511E-5
691.000000	15.178117	-1.634459E-5
694.000000	15.389585	-1.595394E-5
697.000000	15.883344	-1.608774E-5
700.000000	16.099939	-1.794513E-5
703.000000	16.086544	-1.821964E-5
706.000000	15.856742	-1.851237E-5
709.000000	15.986925	-1.804219E-5
712.000000	15.985779	-2.056366E-5
715.000000	16.108775	-1.799801E-5
718.000000	15.977398	-1.691231E-5
721.000000	15.836811	-2.077388E-5
724.000000	15.601482	-1.597136E-5
727.000000	15.694155	-1.811931E-5
730.000000	15.220025	-1.553384E-5
733.000000	15.492206	-1.540441E-5
736.000000	15.025413	-1.511207E-5
739.000000	14.753171	-1.239362E-5
742.000000	14.755131	-1.404122E-5
745.000000	14.060110	-1.090058E-5
748.000000	14.006677	-1.149022E-5
751.000000	13.263881	-1.047725E-5
754.000000	12.888672	-8.873981E-6
757.000000	12.358025	-9.707298E-6
760.000000	11.461828	-7.304732E-6
763.000000	10.966132	-7.638334E-6
766.000000	10.052487	-6.370986E-6
769.000000	9.335350	-5.314497E-6
772.000000	8.394733	-5.295939E-6
775.000000	7.383221	-3.970975E-6
778.000000	6.685569	-3.955877E-6
781.000000	5.749528	-3.226530E-6
784.000000	5.021193	-2.656986E-6
787.000000	4.252402	-2.449107E-6
790.000000	3.514265	-1.841717E-6
793.000000	2.933155	-1.723012E-6
796.000000	2.361449	-1.315556E-6
799.000000	1.932687	-1.080522E-6
802.000000	1.537538	-9.153786E-7
805.000000	1.260766	-6.966114E-7
808.000000	0.991986	-6.048261E-7
811.000000	0.798642	-4.427912E-7
814.000000	0.632055	-3.720453E-7
817.000000	0.507167	-2.984777E-7
820.000000	0.410482	-2.357866E-7
823.000000	0.329162	-2.108593E-7
826.000000	0.276198	-1.593016E-7
829.000000	0.221940	-1.458039E-7
832.000000	0.187858	-1.169389E-7
835.000000	0.156375	-1.057158E-7
838.000000	0.074980	-5.126855E-8
841.000000	0.100534	-6.443626E-8
844.000000	0.095754	-6.702461E-8
847.000000	0.099037	-6.499598E-8
850.000000	0.084863	-6.059298E-8
853.000000	0.083739	-5.586090E-8
856.000000	0.074745	-5.025101E-8
859.000000	0.066681	-4.515888E-8
862.000000	0.065873	-4.076964E-8
865.000000	0.058597	-3.631954E-8
868.000000	0.056752	-3.273482E-8
871.000000	0.052539	-2.958612E-8
874.000000	0.052056	-2.697947E-8
877.000000	0.050375	-2.481504E-8
880.000000	0.047626	-2.308459E-8
883.000000	0.047657	-2.164373E-8
886.000000	0.045727	-2.048847E-8
889.000000	0.045687	-1.965480E-8
892.000000	0.045386	-1.883853E-8
895.000000	0.045258	-1.807090E-8
898.000000	0.044661	-1.770524E-8
901.000000	0.044770	-1.724130E-8
904.000000	0.042219	-1.695816E-8
907.000000	0.042122	-1.657311E-8
910.000000	0.042119	-1.630775E-8
913.000000	0.039669	-1.611508E-8
916.000000	0.042024	-1.615282E-8
919.000000	0.040143	-1.600278E-8
922.000000	0.039814	-1.596578E-8
925.000000	0.041458	-1.581592E-8
928.000000	0.039690	-1.576791E-8
931.000000	0.042688	-1.566662E-8
934.000000	0.040137	-1.560904E-8
937.000000	0.041103	-1.555816E-8
940.000000	0.044045	-1.549446E-8
943.000000	0.043446	-1.555343E-8
946.000000	0.045825	-1.549215E-8
949.000000	0.043099	-1.535755E-8
952.000000	0.045246	-1.529605E-8
955.000000	0.047707	-1.525553E-8
958.000000	0.049513	-1.534656E-8
961.000000	0.051442	-1.529743E-8
964.000000	0.052042	-1.542879E-8
967.000000	0.054894	-1.547591E-8
970.000000	0.055229	-1.532663E-8
973.000000	0.057210	-1.519973E-8
976.000000	0.059500	-1.518942E-8
979.000000	0.064446	-1.519358E-8
982.000000	0.069904	-1.516220E-8
985.000000	0.071737	-1.522080E-8
988.000000	0.072992	-1.514431E-8
991.000000	0.074057	-1.504760E-8
994.000000	0.079038	-1.496884E-8
997.000000	0.082331	-1.509138E-8
1000.000000	0.082675	-1.522928E-8
1003.000000	0.082622	-1.511005E-8
1006.000000	0.085133	-1.513426E-8
1009.000000	0.088692	-1.514959E-8
1012.000000	0.086256	-1.503069E-8
1015.000000	0.085367	-1.512087E-8
1018.000000	0.085180	-1.511286E-8
1021.000000	0.082442	-1.497702E-8
1024.000000	0.080144	-1.506828E-8
1027.000000	0.073637	-1.513788E-8
1030.000000	0.068341	-1.513818E-8
1033.000000	0.065700	-1.520519E-8
1036.000000	0.058494	-1.506888E-8
1039.000000	0.051439	-1.502294E-8
1042.000000	0.057748	-1.510235E-8
1045.000000	0.068752	-1.500885E-8
1048.000000	0.070088	-1.493165E-8
1051.000000	0.068399	-1.489349E-8
1054.000000	0.060423	-1.497928E-8
1057.000000	0.053622	-1.498684E-8
1060.000000	0.047364	-1.498001E-8
1063.000000	0.038676	-1.485525E-8
1066.000000	0.029701	-1.486576E-8
1069.000000	0.013967	-1.491029E-8
1072.000000	0.006850	-1.495986E-8
1075.000000	0.023194	-1.503993E-8
1078.000000	0.033451	-1.513766E-8
1081.000000	0.041192	-1.518200E-8
1084.000000	0.043837	-1.508536E-8
1087.000000	0.048208	-1.505639E-8
1090.000000	0.049308	-1.501053E-8
1093.000000	0.051419	-1.499347E-8
1096.000000	0.052319	-1.505290E-8
1099.000000	0.048762	-1.510248E-8
